time_ms,heading,roll,pitch,ax,ay,az,gx,gy,gz
1296489,184.37,-4.00,-17.31,-0.580,2.780,9.380,4.812,4.687,-0.812
1296511,184.37,-4.00,-17.37,-0.870,3.000,9.380,0.750,-0.625,-0.062
1296536,184.37,-4.00,-17.37,-0.570,2.870,9.310,-0.250,-1.625,0.375
1296558,184.37,-4.00,-17.44,-0.510,2.960,9.360,3.313,0.625,0.375
1296580,184.37,-4.00,-17.50,-0.590,3.170,9.630,3.875,1.812,-0.250
1296606,184.37,-4.00,-17.50,-0.670,3.070,9.410,-1.750,-0.250,-0.375
1296628,184.37,-4.00,-17.50,-0.560,2.900,9.270,-2.938,-0.937,0.187
1296650,184.37,-4.00,-17.44,-0.590,2.890,9.390,-1.625,-0.375,0.125
1296672,184.37,-4.00,-17.44,-0.590,2.960,9.430,-0.187,0.437,-0.187
1296697,184.37,-4.00,-17.44,-0.580,2.900,9.360,0.312,0.312,-0.062
1296719,184.37,-4.00,-17.44,-0.600,2.940,9.380,1.125,0.250,0.062
1296741,184.37,-4.00,-17.44,-0.600,3.040,9.480,1.562,0.500,0.062
1296763,184.37,-4.00,-17.50,-0.610,3.040,9.470,0.187,0.187,0.062
1296787,184.37,-4.00,-17.50,-0.610,3.040,9.410,-0.937,-0.125,-0.062
1296809,184.37,-3.94,-17.44,-0.590,3.000,9.420,-1.437,-0.250,0.000
1296831,184.37,-3.94,-17.44,-0.600,2.970,9.410,-1.250,-0.312,0.000
1296857,184.37,-3.94,-17.44,-0.610,2.940,9.410,-0.312,0.000,0.000
1296879,184.37,-3.94,-17.44,-0.600,2.950,9.390,0.812,0.062,0.000
1296901,184.37,-3.94,-17.44,-0.600,2.960,9.410,0.875,0.312,0.062
1296927,184.37,-3.94,-17.44,-0.590,2.970,9.410,0.500,0.000,-0.062
1296949,184.37,-3.94,-17.44,-0.600,3.010,9.470,0.125,0.250,-0.125
1296971,184.37,-3.94,-17.44,-0.590,3.010,9.440,-0.500,0.000,-0.062
1296997,184.37,-3.94,-17.44,-0.610,2.950,9.400,-0.812,-0.187,-0.062
1297019,184.37,-3.94,-17.44,-0.580,2.930,9.360,-0.437,0.000,0.000
1297041,184.37,-3.94,-17.44,-0.580,2.970,9.390,0.250,0.062,-0.125
1297063,184.37,-3.94,-17.44,-0.630,2.980,9.380,0.812,0.562,-0.125
1297088,184.37,-3.94,-17.50,-0.610,3.030,9.420,0.875,0.187,0.000
1297110,184.37,-3.94,-17.50,-0.590,3.010,9.420,0.312,-0.062,0.187
1297132,184.37,-3.94,-17.50,-0.600,3.020,9.420,-0.250,-0.250,0.125
1297158,184.37,-3.94,-17.44,-0.600,2.990,9.420,-0.937,-0.250,0.062
1297180,184.37,-3.94,-17.44,-0.600,2.960,9.380,-0.875,0.000,-0.062
1297202,184.37,-3.94,-17.44,-0.610,2.930,9.410,-0.562,0.125,-0.062
1297228,184.37,-3.94,-17.44,-0.570,2.960,9.430,0.125,0.000,-0.187
1297250,184.37,-3.94,-17.44,-0.600,2.970,9.460,0.625,0.062,0.000
1297272,184.37,-3.94,-17.44,-0.590,3.000,9.400,0.625,0.250,-0.062
1297298,184.37,-3.94,-17.44,-0.600,3.000,9.430,0.187,0.062,-0.062
1297320,184.37,-3.94,-17.44,-0.600,2.970,9.400,-0.062,-0.062,-0.125
1297342,184.37,-3.94,-17.44,-0.620,2.980,9.420,-0.500,0.062,-0.125
1297364,184.37,-3.94,-17.44,-0.610,2.990,9.410,-0.562,-0.062,0.062
1297389,184.37,-3.87,-17.44,-0.590,2.980,9.420,-0.250,0.062,0.000
1297411,184.37,-3.87,-17.44,-0.610,2.980,9.410,0.062,-0.125,0.062
1297433,184.37,-3.87,-17.44,-0.620,2.970,9.390,0.125,0.000,0.125
1297460,184.37,-3.87,-17.44,-0.600,2.990,9.410,0.125,0.000,0.125
1297482,184.37,-3.87,-17.44,-0.610,2.970,9.400,0.062,0.062,0.000
1297504,184.37,-3.87,-17.44,-0.600,2.990,9.430,-0.187,-0.062,0.000
1297530,184.37,-3.87,-17.44,-0.580,2.960,9.410,-0.375,0.125,-0.062
1297552,184.37,-3.87,-17.44,-0.620,2.960,9.420,-0.250,0.000,-0.062
1297576,184.37,-3.87,-17.44,-0.630,2.970,9.420,0.250,-0.125,-0.062
1297600,184.37,-3.87,-17.44,-0.600,2.980,9.390,0.250,-0.062,0.000
1297622,184.37,-3.87,-17.44,-0.590,2.970,9.400,0.312,0.062,0.062
1297644,184.37,-3.87,-17.44,-0.610,2.980,9.400,0.062,0.187,0.000
1297666,184.37,-3.87,-17.44,-0.610,2.990,9.390,-0.187,0.375,0.000
1297690,184.37,-3.87,-17.44,-0.610,2.970,9.440,-0.250,0.125,-0.125
1297712,184.37,-3.87,-17.44,-0.610,2.970,9.450,-0.375,0.000,0.062
1297734,184.37,-3.87,-17.44,-0.600,2.960,9.390,-0.187,0.000,0.000
1297761,184.37,-3.87,-17.44,-0.580,2.960,9.370,0.125,0.000,0.062
1297783,184.37,-3.87,-17.44,-0.570,2.960,9.380,0.187,0.062,-0.062
1297807,184.37,-3.87,-17.44,-0.610,2.990,9.430,0.062,0.187,-0.062
1297831,184.37,-3.87,-17.44,-0.610,3.010,9.430,0.062,0.125,-0.062
1297853,184.37,-3.87,-17.44,-0.600,2.970,9.440,-0.125,0.062,-0.125
1297875,184.37,-3.87,-17.44,-0.590,2.990,9.410,-0.250,-0.312,0.062
1297901,184.37,-3.87,-17.44,-0.590,2.970,9.410,-0.375,-0.125,-0.062
1297923,184.37,-3.87,-17.44,-0.590,2.950,9.380,-0.250,-0.062,-0.062
1297945,184.37,-3.87,-17.44,-0.590,2.950,9.420,0.125,0.000,-0.062
1297967,184.37,-3.87,-17.44,-0.590,2.980,9.390,0.250,0.187,-0.062
1297992,184.37,-3.87,-17.44,-0.600,3.000,9.450,0.062,0.187,-0.062
1298014,184.37,-3.87,-17.44,-0.610,3.010,9.470,0.187,-0.125,0.000
1298039,184.37,-3.87,-17.44,-0.600,2.980,9.440,-0.187,-0.125,0.062
1298062,184.37,-3.87,-17.44,-0.600,2.930,9.400,-0.062,-0.187,0.187
1298084,184.37,-3.87,-17.44,-0.600,2.960,9.390,-0.062,0.000,0.000
1298107,184.37,-3.87,-17.44,-0.590,2.950,9.450,0.062,0.125,-0.062
1298132,184.37,-3.87,-17.44,-0.610,2.970,9.400,0.250,0.312,-0.125
1298154,184.37,-3.87,-17.44,-0.610,2.980,9.450,0.437,0.250,-0.062
1298176,184.37,-3.87,-17.44,-0.630,3.000,9.420,0.125,0.000,0.062
1298202,184.37,-3.87,-17.44,-0.590,3.010,9.420,0.187,-0.187,0.062
1298224,184.37,-3.87,-17.44,-0.600,3.000,9.380,0.187,0.000,-0.062
1298246,184.37,-3.87,-17.44,-0.550,2.980,9.390,0.125,0.062,-0.125
1298268,184.37,-3.87,-17.44,-0.600,2.980,9.420,0.187,0.250,0.000
1298293,184.37,-3.87,-17.44,-0.630,2.970,9.430,0.000,0.312,0.062
1298315,184.37,-3.87,-17.44,-0.610,2.970,9.410,-0.125,0.000,0.125
1298339,184.37,-3.87,-17.44,-0.600,2.980,9.440,0.062,0.062,0.062
1298363,184.37,-3.87,-17.44,-0.600,2.980,9.430,0.062,-0.062,0.000
1298385,184.37,-3.87,-17.44,-0.620,2.980,9.410,0.250,0.000,0.062
1298407,184.37,-3.87,-17.44,-0.600,2.940,9.380,0.250,0.000,0.062
1298433,184.37,-3.87,-17.44,-0.570,3.000,9.410,0.250,0.062,-0.062
1298455,184.37,-3.87,-17.44,-0.600,2.970,9.410,0.125,0.125,-0.125
1298477,184.37,-3.87,-17.44,-0.630,3.000,9.400,0.000,0.187,-0.125
1298503,184.37,-3.87,-17.44,-0.600,2.970,9.430,0.000,0.187,-0.125
1298525,184.37,-3.87,-17.44,-0.610,2.970,9.410,0.000,-0.062,-0.125
1298547,184.37,-3.87,-17.44,-0.580,2.930,9.430,0.250,0.250,-0.125
1298569,184.37,-3.87,-17.50,-0.590,2.960,9.460,0.812,0.000,0.125
1298594,184.37,-3.87,-17.50,-0.590,3.000,9.380,0.375,0.062,0.062
1298616,184.37,-3.87,-17.50,-0.640,2.960,9.410,-0.125,-0.187,0.125
1298639,184.37,-3.87,-17.50,-0.590,2.940,9.420,0.187,-0.062,0.062
1298664,184.37,-3.87,-17.50,-0.600,3.000,9.440,0.312,0.250,0.000
1298686,184.37,-3.87,-17.50,-0.600,2.970,9.430,0.562,0.250,0.062
1298708,184.37,-3.87,-17.50,-0.590,2.960,9.360,0.875,0.062,0.062
1298734,184.37,-3.87,-17.50,-0.600,3.010,9.410,1.375,0.187,0.062
1298756,184.37,-3.87,-17.56,-0.610,2.990,9.430,1.187,0.250,0.062
1298778,184.37,-3.87,-17.56,-0.630,3.010,9.410,0.750,0.250,0.125
1298804,184.37,-3.87,-17.56,-0.630,3.030,9.410,-0.062,-0.125,0.312
1298826,184.37,-3.87,-17.56,-0.630,2.920,9.490,-1.937,-0.187,0.000
1298848,184.37,-3.87,-17.56,-0.570,3.010,9.400,-1.000,-0.687,0.312
1298870,184.37,-3.87,-17.50,-0.600,3.020,9.410,-1.000,0.062,0.187
1298895,184.37,-3.87,-17.50,-0.600,2.960,9.430,-1.000,-0.125,0.000
1298917,184.37,-3.87,-17.44,-0.610,2.970,9.360,-1.437,-0.562,0.375
1298939,184.37,-3.87,-17.44,-0.590,2.990,9.400,-1.187,-0.500,0.250
1298965,184.37,-3.87,-17.44,-0.600,2.980,9.430,-0.375,0.000,0.187
1298987,184.37,-3.87,-17.44,-0.560,2.980,9.380,-0.125,0.062,0.062
1299009,184.37,-3.87,-17.44,-0.600,2.980,9.430,-0.125,-0.062,-0.187
1299035,184.37,-3.87,-17.44,-0.630,2.990,9.420,-0.375,-0.375,0.562
1299057,184.37,-3.87,-17.44,-0.590,2.980,9.400,-0.312,-0.500,0.437
1299079,184.37,-3.87,-17.44,-0.570,2.970,9.390,-0.250,-0.250,0.250
1299105,184.37,-3.87,-17.44,-0.560,3.000,9.420,0.562,0.062,-0.125
1299127,184.37,-3.87,-17.44,-0.560,2.960,9.380,1.000,0.562,-0.312
1299149,184.37,-3.87,-17.50,-0.600,2.960,9.360,1.750,0.750,-0.375
1299171,184.37,-3.94,-17.50,-0.640,3.010,9.420,2.813,1.000,-0.375
1299196,184.37,-3.94,-17.62,-0.620,2.990,9.410,2.625,0.937,-0.375
1299218,184.37,-3.94,-17.62,-0.600,3.010,9.450,2.313,0.500,-0.125
1299240,184.37,-3.94,-17.69,-0.640,3.080,9.450,1.125,0.437,-0.187
1299266,184.37,-3.94,-17.69,-0.600,3.040,9.410,-0.250,-0.062,0.312
1299288,184.37,-3.94,-17.69,-0.590,3.030,9.420,-0.250,-0.062,0.062
1299310,184.37,-3.94,-17.69,-0.620,2.990,9.420,-0.437,0.062,0.062
1299336,184.37,-3.94,-17.69,-0.590,2.940,9.400,0.000,0.062,0.000
1299358,184.37,-3.94,-17.62,-0.720,3.120,9.180,-2.313,-0.625,0.125
1299380,184.37,-3.94,-17.62,-0.590,3.080,9.280,-0.437,-0.437,0.375
1299407,184.37,-3.94,-17.62,-0.600,3.100,9.340,0.375,-0.062,0.187
1299429,184.37,-3.94,-17.62,-0.610,3.010,9.420,0.562,0.125,0.125
1299451,184.37,-3.94,-17.62,-0.590,3.010,9.350,0.375,0.125,-0.062
1299473,184.37,-3.94,-17.62,-0.620,2.990,9.400,0.312,0.250,-0.187
1299497,184.37,-3.94,-17.62,-0.630,3.030,9.440,0.250,-0.062,0.000
1299519,184.37,-3.94,-17.62,-0.640,3.040,9.420,-0.562,-0.312,0.187
1299541,184.37,-3.94,-17.62,-0.600,3.010,9.410,-0.812,-0.625,0.437
1299567,184.37,-3.94,-17.62,-0.600,2.970,9.380,-1.062,-0.625,0.437
1299589,184.37,-3.94,-17.56,-0.570,2.960,9.380,-1.125,-0.562,0.375
1299611,184.37,-3.94,-17.56,-0.580,3.000,9.400,-0.375,-0.312,-0.187
1299637,184.37,-3.94,-17.56,-0.620,3.020,9.400,0.687,0.812,-0.250
1299659,184.37,-3.94,-17.56,-0.610,3.030,9.360,0.562,0.312,-0.187
1299681,184.37,-3.94,-17.56,-0.620,3.010,9.440,0.625,-0.062,-0.062
1299708,184.37,-3.94,-17.56,-0.630,3.060,9.440,0.312,0.500,-0.062
1299730,184.37,-3.94,-17.56,-0.600,3.000,9.340,-0.437,-0.250,-0.062
1299752,184.37,-3.94,-17.56,-0.540,2.940,9.380,-0.375,-0.375,0.125
1299774,184.37,-3.94,-17.56,-0.570,3.020,9.390,0.187,0.500,-0.125
1299799,184.37,-3.94,-17.56,-0.670,2.980,9.510,-0.062,0.187,-0.375
1299821,184.37,-3.94,-17.56,-0.550,2.980,9.300,-0.312,-0.187,-0.125
1299847,184.37,-3.94,-17.56,-0.640,3.040,9.470,0.250,0.375,0.062
1299869,184.37,-3.94,-17.56,-0.640,3.020,9.410,-0.250,-0.062,-0.062
1299891,184.37,-3.94,-17.56,-0.600,2.970,9.360,-0.875,-0.375,0.062
1299915,184.37,-3.94,-17.56,-0.630,3.030,9.430,-0.312,-0.062,0.187
1299939,184.37,-3.94,-17.56,-0.600,3.010,9.400,-0.187,-0.312,0.187
1299961,184.37,-3.94,-17.56,-0.580,3.010,9.400,0.062,-0.062,0.250
1299984,184.37,-3.94,-17.56,-0.600,2.960,9.390,-0.125,-0.125,-0.062
1300009,184.37,-3.94,-17.56,-0.640,2.990,9.400,-0.187,0.000,-0.187
1300031,184.37,-3.94,-17.56,-0.590,2.990,9.390,-0.125,0.000,-0.062
1300053,184.37,-3.94,-17.56,-0.610,3.020,9.450,-0.187,0.125,-0.125
1300075,184.37,-3.94,-17.56,-0.600,3.010,9.360,-0.250,0.250,-0.312
1300100,184.37,-3.94,-17.56,-0.640,3.050,9.450,-0.062,0.187,-0.187
1300122,184.37,-3.94,-17.56,-0.640,3.020,9.440,-0.250,-0.062,-0.125
1300147,184.37,-3.94,-17.56,-0.580,2.990,9.410,-0.250,0.000,0.125
1300170,184.37,-3.94,-17.56,-0.620,3.010,9.380,-0.312,0.062,0.187
1300192,184.37,-3.94,-17.56,-0.620,2.990,9.430,-0.500,-0.250,0.125
1300216,184.37,-3.94,-17.56,-0.600,2.940,9.380,0.312,-0.062,0.375
1300240,184.37,-3.94,-17.56,-0.610,3.020,9.440,0.937,0.125,0.437
1300262,184.37,-3.94,-17.62,-0.600,3.020,9.470,1.125,-0.125,0.312
1300284,184.37,-3.94,-17.62,-0.560,3.010,9.380,0.937,-0.125,0.500
1300310,184.37,-3.94,-17.62,-0.610,3.050,9.430,0.312,-0.062,0.125
1300332,184.37,-3.94,-17.62,-0.610,3.040,9.390,-0.437,-0.125,0.187
1300354,184.37,-3.94,-17.62,-0.600,2.990,9.380,-0.937,-0.375,0.062
1300376,184.37,-3.94,-17.62,-0.570,2.990,9.370,-0.812,0.062,0.062
1300401,184.37,-3.94,-17.62,-0.630,3.010,9.430,-0.500,-0.187,0.125
1300423,184.37,-3.94,-17.62,-0.600,2.940,9.380,0.062,-0.125,0.187
1300448,184.37,-3.94,-17.62,-0.580,3.010,9.380,0.875,0.187,-0.062
1300471,184.37,-3.94,-17.62,-0.590,3.020,9.440,0.812,0.250,0.062
1300493,184.37,-3.94,-17.62,-0.600,3.030,9.380,0.312,0.000,0.000
1300516,184.37,-3.94,-17.62,-0.610,3.030,9.420,-0.437,0.000,-0.062
1300541,184.37,-3.94,-17.62,-0.610,3.010,9.400,-0.562,-0.125,-0.062
1300563,184.37,-3.94,-17.62,-0.610,2.990,9.430,-0.375,-0.062,-0.062
1300585,184.37,-3.94,-17.62,-0.610,3.020,9.420,-0.625,0.000,-0.062
1300611,184.37,-3.94,-17.62,-0.580,2.970,9.380,-0.187,-0.062,0.187
1300633,184.37,-3.94,-17.62,-0.580,3.010,9.380,-0.187,-0.062,0.125
1300655,184.37,-3.94,-17.62,-0.610,3.000,9.390,-0.187,0.125,0.000
1300677,184.37,-3.94,-17.62,-0.620,3.030,9.430,0.687,0.312,0.125
1300702,184.37,-3.94,-17.62,-0.610,3.010,9.440,0.312,0.000,0.062
1300724,184.37,-3.94,-17.62,-0.600,3.020,9.380,0.187,-0.250,0.125
1300748,184.37,-3.94,-17.62,-0.590,3.000,9.410,-0.500,-0.125,-0.187
1300772,184.37,-3.94,-17.62,-0.610,3.000,9.390,-0.500,-0.250,0.062
1300794,184.37,-3.94,-17.62,-0.580,2.980,9.390,-0.250,0.000,0.000
1300816,184.37,-3.94,-17.62,-0.560,2.960,9.380,0.312,0.125,-0.062
1300842,184.37,-3.94,-17.62,-0.620,3.010,9.410,0.875,0.312,-0.125
1300864,184.37,-3.94,-17.69,-0.610,3.010,9.420,0.625,0.312,-0.187
1300886,184.37,-3.94,-17.69,-0.600,2.980,9.350,0.437,0.125,0.062
1300912,184.37,-3.94,-17.69,-0.620,3.070,9.450,0.062,0.062,0.062
1300934,184.37,-3.94,-17.69,-0.600,3.020,9.380,-0.937,-0.437,0.187
1300956,184.37,-3.94,-17.62,-0.580,2.990,9.390,-0.812,-0.437,0.250
1300978,184.37,-3.94,-17.62,-0.600,3.010,9.380,-0.375,0.187,0.062
1301003,184.37,-3.94,-17.62,-0.590,2.970,9.430,0.125,0.125,0.000
1301025,184.37,-3.94,-17.62,-0.610,2.990,9.400,0.187,0.250,0.000
1301047,184.37,-3.94,-17.62,-0.610,3.030,9.400,0.125,0.062,0.125
1301073,184.37,-3.94,-17.62,-0.590,3.020,9.380,-0.187,-0.375,0.250
1301095,184.37,-3.94,-17.62,-0.610,3.050,9.420,-0.187,-0.187,0.250
1301117,184.37,-3.94,-17.62,-0.610,3.000,9.410,-0.312,-0.062,0.125
1301143,184.37,-3.94,-17.62,-0.640,2.900,9.580,-2.063,-0.375,0.250
1301165,184.37,-3.94,-17.56,-0.570,2.970,9.380,-2.188,-0.562,0.000
1301187,184.37,-3.94,-17.56,-0.600,2.960,9.560,-2.125,-0.562,0.125
1301213,184.37,-3.94,-17.50,-0.600,2.980,9.350,-1.687,-0.687,0.125
1301235,184.37,-3.94,-17.50,-0.540,2.990,9.420,0.375,0.000,0.000
1301257,184.37,-3.94,-17.50,-0.590,2.910,9.380,0.812,0.375,-0.125
1301279,184.37,-3.94,-17.50,-0.580,2.930,9.380,1.125,0.250,-0.125
1301304,184.37,-3.94,-17.56,-0.600,3.000,9.480,2.000,0.750,-0.250
1301326,184.37,-3.94,-17.62,-0.640,3.030,9.450,3.000,1.125,-0.187
1301348,184.37,-3.94,-17.62,-0.660,3.000,9.310,2.188,0.937,-0.062
1301374,184.37,-3.94,-17.69,-0.630,2.940,9.470,0.687,0.062,-0.062
1301396,184.37,-3.94,-17.69,-0.600,3.090,9.370,-1.062,0.125,-0.125
1301418,184.37,-3.94,-17.62,-0.660,3.060,9.420,-1.187,-0.500,0.187
1301444,184.37,-3.94,-17.62,-0.600,3.000,9.450,-0.750,-0.187,0.000
1301466,184.37,-3.94,-17.62,-0.590,2.970,9.300,-0.375,-0.125,0.000
1301488,184.37,-3.94,-17.62,-0.580,3.000,9.350,-0.437,0.062,-0.062
1301514,184.37,-3.94,-17.62,-0.570,3.010,9.390,-0.250,0.062,-0.125
1301536,184.37,-3.94,-17.62,-0.620,3.030,9.460,0.062,0.187,-0.187
1301558,184.37,-3.94,-17.62,-0.660,3.030,9.460,0.062,0.250,-0.062
1301580,184.37,-3.94,-17.62,-0.620,3.010,9.410,-0.687,-0.500,0.187
1301605,184.37,-3.94,-17.56,-0.580,2.970,9.390,-0.625,-0.375,0.062
1301627,184.37,-3.94,-17.56,-0.580,2.990,9.400,-0.250,-0.062,0.062
1301649,184.37,-3.94,-17.56,-0.600,3.000,9.390,0.250,0.250,0.125
1301675,184.37,-3.94,-17.62,-0.610,3.020,9.420,1.125,0.312,0.125
1301697,184.37,-3.94,-17.62,-0.600,3.010,9.450,1.187,0.250,0.187
1301719,184.37,-3.94,-17.62,-0.610,3.040,9.400,0.625,0.187,0.187
1301745,184.37,-3.94,-17.62,-0.590,3.000,9.400,0.062,-0.062,0.250
1301767,184.37,-3.94,-17.62,-0.600,3.000,9.350,0.250,0.062,0.187
1301789,184.37,-3.94,-17.69,-0.590,3.030,9.400,1.000,0.062,0.312
1301815,184.37,-3.94,-17.69,-0.620,3.010,9.340,0.937,0.250,0.125
1301837,184.37,-3.94,-17.69,-0.620,3.030,9.390,1.000,0.250,0.000
1301859,184.37,-3.94,-17.75,-0.640,3.090,9.470,0.750,0.375,0.125
1301881,184.37,-3.94,-17.75,-0.630,3.070,9.440,-0.250,-0.125,0.187
1301906,184.37,-3.94,-17.75,-0.600,3.050,9.370,-0.750,-0.375,0.125
1301928,184.37,-3.94,-17.69,-0.600,3.010,9.420,-0.812,-0.250,0.187
1301950,184.37,-3.94,-17.69,-0.600,3.000,9.430,-0.437,-0.062,0.062
1301976,184.37,-3.94,-17.69,-0.600,3.030,9.390,0.125,0.187,0.000
1301998,184.37,-3.94,-17.69,-0.600,3.010,9.380,0.437,0.312,-0.062
1302020,184.37,-3.94,-17.69,-0.600,3.050,9.400,0.562,0.187,-0.062
1302047,184.37,-3.94,-17.69,-0.600,3.050,9.430,-0.250,0.062,0.000
1302069,184.37,-3.94,-17.69,-0.620,3.020,9.400,-0.437,-0.062,0.000
1302093,184.37,-3.94,-17.69,-0.610,3.000,9.400,-0.437,-0.187,0.187
1302117,184.37,-3.94,-17.69,-0.600,3.020,9.390,-0.437,-0.125,0.062
1302139,184.37,-3.94,-17.69,-0.580,2.990,9.370,0.000,-0.187,0.125
1302161,184.37,-3.94,-17.69,-0.590,3.000,9.410,0.125,0.000,0.000
1302183,184.37,-3.94,-17.69,-0.620,3.030,9.390,0.187,-0.062,0.125
1302207,184.37,-3.94,-17.69,-0.580,3.010,9.570,-0.125,-0.062,0.062
1302229,184.37,-3.94,-17.62,-0.740,2.890,9.550,-5.437,-1.687,0.125
1302251,184.37,-3.87,-17.56,-0.560,2.930,9.380,-3.188,-1.375,0.250
1302277,184.37,-3.87,-17.50,-0.560,3.030,9.470,-1.062,0.375,0.000
1302299,184.37,-3.87,-17.50,-0.630,2.950,9.390,-0.937,-0.187,0.000
1302321,184.37,-3.87,-17.50,-0.580,2.910,9.320,-0.687,-0.687,0.187
1302348,184.37,-3.87,-17.50,-0.600,3.020,9.390,0.750,0.125,0.062
1302370,184.37,-3.87,-17.50,-0.600,3.040,9.480,1.625,0.437,0.000
1302392,184.37,-3.87,-17.56,-0.600,3.060,9.410,1.437,0.375,0.062
1302418,184.37,-3.87,-17.56,-0.600,2.970,9.470,-0.062,0.312,-0.250
1302440,184.37,-3.87,-17.56,-0.600,2.960,9.250,-0.625,-0.375,0.187
1302462,184.37,-3.87,-17.56,-0.590,3.000,9.460,0.562,0.250,0.125
1302484,184.37,-3.87,-17.56,-0.580,2.990,9.470,0.937,0.625,0.125
1302509,184.37,-3.87,-17.62,-0.620,2.990,9.360,1.562,0.437,0.000
1302531,184.37,-3.87,-17.62,-0.600,3.020,9.430,1.687,0.500,0.000
1302556,184.37,-3.87,-17.69,-0.650,3.060,9.450,1.062,0.125,-0.062
1302579,184.37,-3.87,-17.69,-0.630,3.070,9.430,0.312,0.000,0.062
1302601,184.37,-3.87,-17.69,-0.610,3.060,9.400,-0.625,-0.125,0.062
1302624,184.37,-3.87,-17.69,-0.600,3.040,9.430,-1.062,-0.312,0.000
1302649,184.37,-3.87,-17.62,-0.590,2.990,9.380,-0.625,-0.125,0.125
1302671,184.37,-3.87,-17.62,-0.620,2.970,9.400,-0.187,-0.250,0.000
1302693,184.37,-3.87,-17.62,-0.600,2.990,9.380,0.250,0.187,0.000
1302719,184.37,-3.87,-17.62,-0.610,3.020,9.430,0.625,0.312,0.062
1302741,184.37,-3.87,-17.62,-0.610,3.040,9.420,0.375,0.250,0.062
1302763,184.37,-3.87,-17.62,-0.640,3.040,9.440,-0.062,0.000,0.125
1302785,184.37,-3.87,-17.62,-0.610,3.020,9.400,-0.750,-0.375,0.125
1302810,184.37,-3.87,-17.56,-0.570,3.290,9.410,-3.375,-1.000,0.125
1302832,184.37,-3.81,-17.50,-0.600,2.750,9.570,-5.937,-2.750,0.812
1302854,184.31,-3.81,-17.37,-0.530,2.810,9.570,-4.812,-1.562,0.625
1302880,184.31,-3.75,-17.31,-0.590,2.890,9.460,-1.500,0.437,-0.250
1302902,184.31,-3.75,-17.31,-0.600,2.890,9.280,-0.125,0.250,-0.312
1302924,184.31,-3.75,-17.31,-0.580,2.910,9.370,1.375,0.000,-0.125
1302946,184.31,-3.75,-17.37,-0.620,3.000,9.440,2.500,0.625,0.000
1302970,184.31,-3.81,-17.44,-0.610,3.030,9.420,2.250,0.250,0.250
1302992,184.31,-3.81,-17.44,-0.580,3.050,9.400,1.000,0.187,0.000
1303014,184.31,-3.75,-17.44,-0.570,2.990,9.400,-0.250,0.125,-0.125
1303036,184.31,-3.75,-17.50,-0.590,2.990,9.400,-0.375,0.062,0.000
1303061,184.31,-3.75,-17.50,-0.570,2.950,9.390,0.125,0.312,-0.187
1303083,184.31,-3.75,-17.50,-0.600,2.930,9.350,1.125,0.625,-0.250
1303105,184.31,-3.81,-17.50,-0.620,2.980,9.370,2.500,0.750,-0.187
1303131,184.31,-3.81,-17.62,-0.620,3.040,9.470,2.063,0.625,0.000
1303153,184.31,-3.81,-17.62,-0.620,3.050,9.470,1.000,0.187,0.062
1303175,184.31,-3.81,-17.62,-0.590,3.060,9.430,-0.250,-0.250,0.125
1303201,184.31,-3.81,-17.62,-0.580,3.010,9.400,-0.937,-0.312,0.062
1303223,184.31,-3.81,-17.62,-0.580,2.980,9.400,-0.687,-0.125,0.062
1303245,184.31,-3.81,-17.56,-0.600,2.970,9.380,-0.125,0.000,-0.062
1303271,184.31,-3.81,-17.62,-0.610,3.010,9.430,0.687,0.000,0.000
1303293,184.31,-3.81,-17.62,-0.610,3.040,9.410,0.812,0.125,0.125
1303315,184.31,-3.81,-17.62,-0.600,3.030,9.400,0.500,0.000,0.062
1303337,184.31,-3.81,-17.62,-0.620,3.010,9.410,-0.125,0.000,0.062
1303362,184.31,-3.81,-17.62,-0.630,3.060,9.430,-0.562,0.125,-0.062
1303384,184.31,-3.81,-17.62,-0.590,2.970,9.420,-0.750,-0.250,0.250
1303406,184.31,-3.81,-17.62,-0.590,3.000,9.380,-0.437,-0.312,0.062
1303432,184.31,-3.81,-17.62,-0.600,3.020,9.400,0.187,0.187,0.000
1303454,184.31,-3.81,-17.62,-0.600,3.040,9.420,0.250,0.000,0.125
1303476,184.31,-3.81,-17.62,-0.600,3.010,9.410,0.250,0.125,0.062
1303502,184.31,-3.81,-17.62,-0.630,3.060,9.400,-0.125,0.125,0.125
1303524,184.31,-3.81,-17.62,-0.590,3.000,9.370,-0.687,-0.125,0.062
1303546,184.31,-3.81,-17.56,-0.610,2.970,9.380,-0.625,-0.250,0.062
1303572,184.31,-3.81,-17.56,-0.590,3.000,9.410,0.000,-0.125,0.062
1303594,184.31,-3.81,-17.56,-0.600,3.000,9.380,0.125,0.125,-0.062
1303616,184.31,-3.81,-17.56,-0.610,3.010,9.410,0.437,0.125,0.062
1303638,184.31,-3.81,-17.56,-0.600,3.030,9.420,0.250,0.062,0.000
1303663,184.31,-3.81,-17.56,-0.620,3.020,9.400,-0.062,0.062,0.000
1303685,184.31,-3.75,-17.56,-0.600,3.010,9.400,-0.312,0.187,-0.062
1303707,184.31,-3.75,-17.56,-0.610,3.000,9.400,-0.312,-0.062,-0.125
1303733,184.31,-3.75,-17.56,-0.600,3.000,9.400,-0.312,0.062,0.062
1303755,184.31,-3.75,-17.56,-0.590,3.000,9.390,-0.062,-0.062,0.125
1303777,184.31,-3.75,-17.56,-0.620,3.000,9.390,0.000,-0.125,0.187
1303803,184.31,-3.75,-17.56,-0.610,3.020,9.390,0.062,0.000,0.000
1303825,184.31,-3.75,-17.56,-0.600,3.020,9.430,-0.187,0.000,0.000
1303847,184.31,-3.75,-17.56,-0.600,3.010,9.390,-0.312,-0.187,0.000
1303873,184.31,-3.75,-17.56,-0.600,3.000,9.420,-0.437,-0.250,0.062
1303895,184.31,-3.75,-17.56,-0.590,3.010,9.380,0.000,-0.187,0.125
1303917,184.31,-3.75,-17.56,-0.600,2.990,9.410,0.312,0.187,0.062
1303939,184.31,-3.75,-17.56,-0.610,2.970,9.380,0.437,0.187,0.062
1303964,184.31,-3.75,-17.56,-0.640,3.030,9.380,0.062,0.000,0.000
1303986,184.31,-3.75,-17.56,-0.610,3.010,9.420,-0.187,-0.250,0.000
1304008,184.31,-3.75,-17.56,-0.590,3.020,9.410,-0.500,-0.062,0.187
1304034,184.31,-3.75,-17.56,-0.590,3.000,9.380,-0.250,-0.125,0.125
1304056,184.31,-3.75,-17.56,-0.600,3.010,9.360,0.000,0.062,0.000
1304078,184.31,-3.75,-17.56,-0.600,3.000,9.420,0.062,0.250,-0.062
1304104,184.31,-3.75,-17.56,-0.600,3.020,9.410,0.312,0.062,0.062
1304126,184.31,-3.75,-17.56,-0.610,3.050,9.430,0.187,0.062,0.000
1304148,184.31,-3.75,-17.56,-0.600,3.020,9.410,-0.125,-0.187,0.187
1304175,184.31,-3.75,-17.56,-0.600,3.010,9.400,-0.375,0.062,0.125
1304197,184.31,-3.75,-17.56,-0.600,3.000,9.400,-0.312,0.062,0.125
1304219,184.31,-3.75,-17.56,-0.610,2.990,9.400,-0.062,0.000,0.000
1304241,184.31,-3.75,-17.56,-0.600,3.000,9.410,-0.250,-0.187,0.125
1304265,184.31,-3.75,-17.56,-0.640,3.130,9.330,-2.250,-0.812,0.250
1304287,184.31,-3.75,-17.50,-0.580,2.910,9.480,-2.688,-1.500,0.437
1304309,184.31,-3.75,-17.44,-0.540,2.920,9.500,-1.750,-0.437,0.312
1304335,184.31,-3.75,-17.44,-0.600,2.940,9.440,-0.687,0.250,-0.187
1304357,184.31,-3.75,-17.44,-0.600,2.930,9.330,-0.250,0.000,0.000
1304379,184.31,-3.75,-17.44,-0.590,2.910,9.410,0.625,0.187,0.000
1304405,184.31,-3.75,-17.44,-0.610,3.000,9.430,0.625,0.062,0.062
1304427,184.31,-3.75,-17.44,-0.570,2.990,9.430,0.750,-0.062,0.312
1304449,184.31,-3.75,-17.50,-0.570,3.000,9.400,0.625,0.125,0.125
1304476,184.31,-3.75,-17.50,-0.600,3.020,9.430,0.625,0.437,-0.187
1304498,184.31,-3.75,-17.50,-0.600,2.950,9.410,0.500,0.250,-0.062
1304520,184.31,-3.75,-17.50,-0.600,3.010,9.300,0.062,-0.250,0.187
1304542,184.31,-3.75,-17.50,-0.610,3.000,9.410,0.875,0.187,0.062
1304566,184.31,-3.75,-17.50,-0.590,3.030,9.460,1.000,0.562,-0.250
1304588,184.31,-3.75,-17.56,-0.590,3.010,9.400,0.750,0.562,-0.187
1304610,184.31,-3.75,-17.56,-0.600,3.010,9.410,0.312,0.375,-0.250
1304636,184.31,-3.75,-17.56,-0.620,3.000,9.390,-0.187,0.000,-0.062
1304658,184.31,-3.75,-17.56,-0.600,2.990,9.400,-0.375,0.000,0.000
1304680,184.31,-3.75,-17.56,-0.600,2.990,9.410,-0.312,-0.062,0.000
1304707,184.31,-3.75,-17.56,-0.590,3.000,9.400,-0.062,0.125,0.000
1304729,184.31,-3.75,-17.56,-0.600,3.010,9.410,0.000,0.250,-0.062
1304752,184.31,-3.75,-17.56,-0.600,3.010,9.380,0.187,0.062,0.062
1304777,184.31,-3.75,-17.56,-0.590,3.000,9.400,0.062,0.187,-0.062
1304799,184.31,-3.75,-17.56,-0.590,3.010,9.410,0.250,0.062,0.000
1304821,184.31,-3.75,-17.56,-0.640,3.030,9.430,-0.187,0.000,-0.062
1304843,184.31,-3.75,-17.56,-0.600,2.970,9.410,-0.375,-0.250,0.000
1304867,184.31,-3.75,-17.56,-0.590,2.980,9.430,-0.062,0.187,-0.062
1304889,184.31,-3.75,-17.56,-0.620,3.020,9.410,0.000,0.125,0.062
1304911,184.31,-3.75,-17.56,-0.600,3.010,9.390,-0.187,0.000,0.125
1304937,184.31,-3.75,-17.56,-0.590,3.010,9.400,0.000,-0.062,0.062
1304959,184.31,-3.75,-17.56,-0.600,3.020,9.400,0.187,0.250,0.125
1304981,184.31,-3.75,-17.56,-0.600,2.990,9.400,0.000,0.125,-0.062
1305007,184.31,-3.75,-17.56,-0.600,3.020,9.450,0.000,0.062,0.062
1305029,184.31,-3.75,-17.56,-0.630,3.010,9.390,0.062,0.062,0.125
1305051,184.31,-3.75,-17.56,-0.590,2.980,9.380,-0.125,-0.187,0.062
1305078,184.31,-3.75,-17.56,-0.580,2.990,9.410,0.000,-0.125,0.187
1305100,184.31,-3.75,-17.56,-0.600,3.020,9.410,0.000,0.000,0.062
1305122,184.31,-3.75,-17.56,-0.590,3.010,9.430,-0.125,-0.125,0.062
1305144,184.31,-3.75,-17.56,-0.610,3.010,9.430,-0.125,0.000,0.062
1305168,184.31,-3.75,-17.56,-0.590,2.990,9.390,0.125,-0.062,0.062
1305190,184.31,-3.75,-17.56,-0.610,3.010,9.400,0.187,0.062,-0.062
1305212,184.31,-3.75,-17.56,-0.600,2.990,9.390,0.187,0.062,0.062
1305239,184.31,-3.75,-17.56,-0.610,2.990,9.400,0.250,-0.062,0.125
1305261,184.31,-3.75,-17.56,-0.600,3.020,9.430,0.187,0.000,0.187
1305283,184.31,-3.75,-17.56,-0.600,3.020,9.410,0.062,-0.125,0.062
1305309,184.31,-3.75,-17.56,-0.590,3.010,9.390,-0.062,0.062,0.125
1305331,184.31,-3.75,-17.56,-0.610,3.010,9.410,0.125,0.125,0.000
1305353,184.31,-3.75,-17.56,-0.600,3.000,9.390,-0.250,-0.062,0.062
1305379,184.31,-3.75,-17.56,-0.610,3.010,9.410,-0.375,0.000,0.000
1305401,184.31,-3.75,-17.56,-0.600,3.000,9.400,-0.250,0.000,-0.062
1305423,184.31,-3.75,-17.56,-0.590,3.000,9.390,-0.375,-0.062,0.250
1305445,184.31,-3.75,-17.56,-0.580,3.010,9.400,-0.062,0.062,-0.062
1305470,184.31,-3.75,-17.56,-0.610,3.000,9.420,-0.062,0.062,-0.062
1305492,184.31,-3.75,-17.56,-0.620,2.990,9.410,0.062,-0.062,0.000
1305516,184.31,-3.75,-17.56,-0.610,3.010,9.420,-0.312,-0.187,0.062
1305540,184.31,-3.75,-17.56,-0.600,3.040,9.420,-0.562,-0.312,0.125
1305562,184.31,-3.75,-17.50,-0.600,3.010,9.470,-1.000,-0.312,0.187
1305584,184.31,-3.69,-17.44,-0.650,3.040,9.230,-3.375,-1.500,0.312
1305606,184.31,-3.69,-17.37,-0.580,2.980,9.300,-1.750,-0.312,0.125
1305630,184.31,-3.69,-17.37,-0.600,3.000,9.450,-1.187,0.125,-0.062
1305652,184.31,-3.69,-17.31,-0.590,2.940,9.360,-1.062,-0.250,0.125
1305674,184.31,-3.69,-17.31,-0.600,2.940,9.370,-0.625,-0.375,0.000
1305696,184.31,-3.69,-17.31,-0.620,2.960,9.430,0.562,0.312,-0.062
1305721,184.31,-3.69,-17.31,-0.580,2.980,9.420,1.062,0.312,0.062
1305743,184.31,-3.69,-17.37,-0.580,3.000,9.420,1.062,0.250,0.000
1305768,184.31,-3.69,-17.37,-0.620,3.020,9.400,0.687,0.562,-0.187
1305791,184.31,-3.69,-17.37,-0.600,2.960,9.440,0.437,0.437,-0.187
1305813,184.31,-3.69,-17.37,-0.610,2.960,9.390,-0.125,-0.250,0.125
1305837,184.31,-3.69,-17.37,-0.580,2.970,9.410,0.375,0.250,-0.125
1305861,184.31,-3.69,-17.37,-0.590,3.010,9.420,0.437,0.500,-0.250
1305883,184.31,-3.69,-17.37,-0.630,2.980,9.400,0.687,0.312,-0.187
1305905,184.31,-3.69,-17.37,-0.600,3.000,9.390,0.500,0.312,-0.062
1305931,184.31,-3.69,-17.37,-0.600,2.980,9.410,0.187,0.062,-0.125
1305953,184.31,-3.69,-17.37,-0.600,3.000,9.410,-0.062,-0.062,0.000
1305975,184.31,-3.69,-17.37,-0.580,3.000,9.450,-0.187,0.250,-0.062
1305997,184.31,-3.69,-17.37,-0.600,2.990,9.440,-0.125,0.062,-0.125
1306022,184.31,-3.69,-17.37,-0.590,2.990,9.400,0.312,0.000,-0.125
1306044,184.31,-3.69,-17.37,-0.600,3.000,9.390,0.312,0.062,0.000
1306069,184.31,-3.69,-17.37,-0.590,3.010,9.400,0.375,-0.125,-0.062
1306092,184.31,-3.69,-17.37,-0.600,3.010,9.420,0.187,-0.125,0.062
1306114,184.31,-3.69,-17.37,-0.590,3.020,9.450,-0.125,0.062,-0.062
1306137,184.31,-3.69,-17.37,-0.630,3.010,9.440,-0.250,0.125,-0.062
1306162,184.31,-3.69,-17.37,-0.600,3.000,9.400,-0.125,-0.187,-0.062
1306184,184.31,-3.69,-17.37,-0.620,3.000,9.390,-0.125,-0.062,0.000
1306206,184.31,-3.69,-17.37,-0.590,2.980,9.380,-0.125,0.187,-0.125
1306232,184.31,-3.69,-17.37,-0.620,3.010,9.410,0.000,-0.062,-0.062
1306254,184.31,-3.69,-17.37,-0.600,3.010,9.420,0.312,0.000,0.000
1306276,184.31,-3.69,-17.37,-0.600,3.010,9.430,0.250,0.187,-0.062
1306298,184.31,-3.69,-17.37,-0.630,3.000,9.400,-0.250,-0.062,0.062
1306323,184.31,-3.69,-17.37,-0.600,3.010,9.370,-0.375,-0.187,0.062
1306345,184.31,-3.69,-17.37,-0.600,2.970,9.400,-0.250,0.125,0.000
1306369,184.31,-3.69,-17.37,-0.600,2.990,9.410,0.062,0.062,-0.187
1306393,184.31,-3.69,-17.37,-0.610,3.010,9.430,0.000,0.312,-0.187
1306415,184.31,-3.69,-17.37,-0.600,3.010,9.400,-0.125,-0.062,0.000
1306437,184.31,-3.69,-17.37,-0.640,3.010,9.400,-0.125,0.062,0.062
1306463,184.31,-3.69,-17.37,-0.580,2.990,9.410,-0.062,-0.187,-0.062
1306485,184.31,-3.69,-17.37,-0.590,3.010,9.420,-0.375,0.062,-0.187
1306507,184.31,-3.69,-17.37,-0.580,3.010,9.420,-0.250,-0.125,-0.062
1306533,184.31,-3.69,-17.37,-0.610,2.990,9.410,-0.062,0.187,-0.125
1306555,184.31,-3.69,-17.37,-0.610,2.980,9.390,0.187,0.062,0.062
1306577,184.31,-3.69,-17.37,-0.600,3.020,9.440,0.312,0.062,0.125
1306599,184.31,-3.69,-17.37,-0.620,3.020,9.400,0.000,-0.062,0.000
1306624,184.31,-3.69,-17.37,-0.610,3.020,9.440,-0.312,-0.125,0.000
1306646,184.31,-3.69,-17.37,-0.600,2.990,9.410,-0.437,-0.375,0.187
1306669,184.31,-3.69,-17.37,-0.600,2.980,9.390,0.000,-0.062,0.062
1306694,184.31,-3.69,-17.37,-0.600,3.000,9.390,0.062,-0.125,-0.062
1306716,184.31,-3.69,-17.37,-0.600,3.010,9.420,0.562,0.062,0.000
1306738,184.31,-3.69,-17.37,-0.600,3.000,9.410,0.562,0.125,-0.062
1306764,184.31,-3.69,-17.37,-0.600,3.010,9.400,0.250,-0.312,0.125
1306786,184.31,-3.69,-17.37,-0.600,3.010,9.420,-0.125,-0.187,0.000
1306808,184.31,-3.69,-17.37,-0.600,3.010,9.400,-0.250,-0.125,0.187
1306834,184.31,-3.69,-17.37,-0.620,3.010,9.420,-0.187,0.000,0.000
1306856,184.31,-3.69,-17.37,-0.600,2.990,9.370,0.000,-0.062,0.062
1306878,184.31,-3.69,-17.37,-0.600,3.010,9.410,0.187,0.062,0.062
1306900,184.31,-3.69,-17.37,-0.600,3.010,9.430,0.187,-0.375,0.125
1306925,184.31,-3.69,-17.37,-0.580,2.990,9.430,0.250,-0.125,0.000
1306947,184.31,-3.69,-17.37,-0.580,3.020,9.420,0.125,0.000,-0.062
1306970,184.31,-3.69,-17.37,-0.600,2.990,9.400,-0.125,0.000,0.062
1306995,184.31,-3.69,-17.37,-0.610,3.000,9.420,0.062,0.125,0.062
1307017,184.31,-3.69,-17.37,-0.620,2.990,9.420,0.062,-0.125,0.062
1307039,184.31,-3.69,-17.37,-0.590,3.000,9.430,0.000,-0.125,0.062
1307065,184.31,-3.69,-17.37,-0.590,2.990,9.400,-0.062,0.125,0.062
1307087,184.31,-3.69,-17.37,-0.580,2.990,9.400,0.125,0.000,0.062
1307109,184.31,-3.69,-17.37,-0.600,3.010,9.380,0.250,0.125,0.000
1307135,184.31,-3.69,-17.37,-0.600,3.010,9.400,0.562,0.375,-0.187
1307157,184.31,-3.69,-17.44,-0.600,3.010,9.350,0.812,0.562,-0.187
1307179,184.31,-3.69,-17.44,-0.630,3.140,9.570,1.250,0.625,0.000
1307201,184.31,-3.69,-17.44,-0.610,2.930,9.430,-0.750,-0.750,0.125
1307226,184.31,-3.69,-17.44,-0.600,2.950,9.500,-0.062,0.187,-0.062
1307248,184.31,-3.69,-17.44,-0.650,3.050,9.490,-0.187,-0.250,0.062
1307270,184.31,-3.69,-17.44,-0.600,2.990,9.370,-0.500,-0.500,-0.125
1307296,184.31,-3.69,-17.44,-0.570,2.990,9.360,-0.062,-0.062,0.000
1307318,184.31,-3.69,-17.44,-0.600,3.010,9.420,0.375,-0.125,-0.125
1307340,184.31,-3.69,-17.44,-0.590,3.000,9.410,0.125,0.187,-0.062
1307366,184.31,-3.69,-17.44,-0.600,3.010,9.420,0.062,0.375,-0.125
1307388,184.31,-3.69,-17.44,-0.640,3.000,9.440,0.000,0.375,0.062
1307410,184.31,-3.69,-17.44,-0.630,2.980,9.400,-0.125,-0.250,0.187
1307437,184.31,-3.69,-17.44,-0.580,3.000,9.410,0.562,-0.125,0.375
1307459,184.31,-3.69,-17.44,-0.600,3.010,9.390,0.937,-0.250,0.187
1307481,184.31,-3.69,-17.50,-0.570,3.040,9.420,1.187,-0.125,0.187
1307503,184.31,-3.69,-17.50,-0.590,3.040,9.390,0.750,0.250,0.000
1307527,184.31,-3.69,-17.50,-0.600,3.050,9.420,-0.062,0.125,-0.250
1307549,184.31,-3.69,-17.50,-0.600,3.030,9.420,-0.750,-0.062,-0.312
1307571,184.31,-3.69,-17.50,-0.610,3.000,9.410,-1.250,0.187,-0.250
1307597,184.31,-3.69,-17.44,-0.600,2.980,9.390,-1.125,-0.062,-0.125
1307619,184.31,-3.69,-17.44,-0.620,2.930,9.350,-0.375,-0.062,0.000
1307641,184.31,-3.69,-17.44,-0.610,2.950,9.380,0.500,0.062,0.125
1307667,184.31,-3.69,-17.44,-0.600,3.010,9.400,1.125,0.125,0.187
1307689,184.31,-3.69,-17.50,-0.590,3.040,9.420,0.937,0.250,0.062
1307711,184.31,-3.69,-17.50,-0.590,3.080,9.430,0.500,0.125,0.125
1307738,184.31,-3.69,-17.50,-0.630,3.020,9.410,-0.562,-0.062,-0.187
1307760,184.31,-3.69,-17.50,-0.620,2.990,9.370,-1.000,-0.250,-0.250
1307783,184.31,-3.69,-17.44,-0.620,2.960,9.380,-0.812,-0.187,-0.125
1307805,184.31,-3.69,-17.44,-0.580,2.980,9.340,0.187,0.187,-0.062
1307829,184.31,-3.69,-17.44,-0.600,3.010,9.410,0.812,0.375,0.000
1307851,184.31,-3.69,-17.50,-0.630,3.020,9.410,1.062,0.312,0.000
1307878,184.31,-3.69,-17.50,-0.620,3.050,9.410,0.437,0.312,0.062
1307900,184.31,-3.69,-17.50,-0.600,3.050,9.440,-0.125,-0.062,-0.062
1307922,184.31,-3.69,-17.50,-0.600,3.020,9.420,-0.437,-0.187,0.062
1307949,184.31,-3.69,-17.50,-0.600,2.990,9.390,-0.187,-0.250,0.062
1307971,184.31,-3.69,-17.50,-0.580,3.000,9.380,0.250,-0.125,0.125
1307995,184.31,-3.69,-17.50,-0.600,3.010,9.380,0.500,0.187,0.000
1308019,184.31,-3.69,-17.50,-0.610,3.020,9.420,0.437,0.250,0.000
1308041,184.31,-3.69,-17.50,-0.600,3.050,9.410,0.312,0.250,0.000
1308064,184.31,-3.69,-17.50,-0.620,3.010,9.420,-0.187,0.062,0.000
1308089,184.31,-3.69,-17.50,-0.600,3.000,9.400,-0.375,-0.062,-0.062
1308111,184.31,-3.69,-17.50,-0.600,3.010,9.410,-0.125,-0.062,-0.062
1308133,184.31,-3.69,-17.50,-0.600,3.020,9.380,0.125,-0.125,0.000
1308155,184.31,-3.69,-17.50,-0.600,3.000,9.370,0.375,-0.062,0.062
1308180,184.31,-3.69,-17.50,-0.600,3.020,9.430,0.375,0.312,-0.125
1308202,184.31,-3.69,-17.50,-0.600,3.040,9.420,0.187,0.062,-0.062
1308227,184.31,-3.69,-17.50,-0.610,3.020,9.430,-0.187,-0.125,0.000
1308250,184.31,-3.69,-17.50,-0.610,3.030,9.440,-0.375,0.000,-0.187
1308272,184.31,-3.69,-17.50,-0.590,3.010,9.390,-0.187,0.000,0.062
1308296,184.31,-3.69,-17.50,-0.600,3.010,9.400,0.125,-0.062,0.062
1308320,184.31,-3.69,-17.50,-0.600,3.020,9.410,0.375,0.000,0.062
1308342,184.31,-3.69,-17.50,-0.600,3.000,9.380,0.187,0.125,0.000
1308364,184.31,-3.69,-17.50,-0.620,3.030,9.380,0.250,0.125,0.062
1308390,184.31,-3.69,-17.50,-0.590,3.040,9.460,-0.125,0.062,-0.125
1308412,184.31,-3.69,-17.50,-0.610,3.030,9.410,-0.062,0.062,-0.062
1308434,184.31,-3.69,-17.50,-0.610,3.020,9.380,0.187,-0.125,0.000
1308456,184.31,-3.69,-17.50,-0.580,3.060,9.370,0.187,0.062,0.000
1308481,184.31,-3.69,-17.50,-0.610,3.040,9.400,0.125,0.000,0.062
1308503,184.31,-3.69,-17.50,-0.610,3.020,9.410,0.125,0.125,0.000
1308527,184.31,-3.69,-17.50,-0.600,3.040,9.390,-0.062,0.000,0.062
1308551,184.31,-3.69,-17.50,-0.600,3.010,9.410,-0.125,-0.062,0.000
1308573,184.31,-3.69,-17.50,-0.600,3.020,9.390,0.000,0.062,-0.062
1308596,184.31,-3.69,-17.50,-0.590,3.010,9.400,0.062,0.000,-0.187
1308621,184.31,-3.69,-17.50,-0.600,3.040,9.430,0.125,-0.062,-0.125
1308643,184.31,-3.69,-17.50,-0.600,3.020,9.400,0.125,0.250,-0.125
1308665,184.31,-3.69,-17.50,-0.600,3.040,9.380,-0.062,0.250,-0.187
1308691,184.31,-3.69,-17.50,-0.610,3.040,9.440,-0.187,0.125,0.062
1308713,184.31,-3.69,-17.50,-0.590,3.030,9.380,-0.375,-0.187,0.000
1308735,184.31,-3.69,-17.50,-0.570,3.010,9.410,-0.250,-0.125,0.062
1308757,184.31,-3.69,-17.50,-0.590,3.030,9.400,0.125,0.000,0.000
1308782,184.31,-3.69,-17.50,-0.610,3.030,9.380,0.312,0.187,0.000
1308804,184.31,-3.69,-17.50,-0.600,3.030,9.390,0.125,0.125,-0.062
1308828,184.31,-3.69,-17.50,-0.600,3.060,9.410,0.187,0.437,-0.062
1308852,184.31,-3.69,-17.50,-0.640,3.030,9.410,-0.312,0.375,0.000
1308874,184.31,-3.69,-17.50,-0.600,3.020,9.420,-0.500,-0.125,0.062
1308896,184.31,-3.69,-17.50,-0.590,3.000,9.410,-0.437,-0.062,-0.062
1308922,184.31,-3.69,-17.50,-0.630,3.010,9.390,-0.375,0.062,-0.125
1308944,184.31,-3.69,-17.50,-0.570,2.980,9.400,0.000,-0.062,0.187
1308966,184.31,-3.69,-17.50,-0.590,3.010,9.380,0.062,0.000,0.250
1308992,184.31,-3.69,-17.50,-0.570,3.010,9.460,0.625,0.125,0.000
1309014,184.31,-3.69,-17.50,-0.590,3.070,9.390,0.687,0.187,-0.187
1309036,184.31,-3.69,-17.50,-0.590,3.040,9.380,0.312,0.312,-0.187
1309058,184.31,-3.69,-17.50,-0.610,3.030,9.400,-0.500,0.125,-0.187
1309083,184.31,-3.69,-17.50,-0.650,3.030,9.380,-0.875,0.250,-0.312
1309105,184.31,-3.69,-17.50,-0.610,3.000,9.400,-0.875,0.125,-0.062
1309128,184.31,-3.69,-17.50,-0.620,3.000,9.400,-0.437,-0.125,0.062
1309153,184.31,-3.69,-17.50,-0.600,2.990,9.410,0.000,-0.187,0.250
1309175,184.31,-3.69,-17.50,-0.600,3.010,9.410,0.500,-0.250,0.312
1309197,184.31,-3.69,-17.50,-0.580,3.030,9.390,0.687,0.125,0.000
1309223,184.31,-3.69,-17.50,-0.600,3.030,9.380,0.187,0.187,0.062
1309245,184.31,-3.69,-17.50,-0.600,3.010,9.410,-0.250,0.062,0.187
1309267,184.31,-3.69,-17.50,-0.610,3.030,9.420,-0.625,-0.125,0.000
1309293,184.31,-3.69,-17.50,-0.600,2.990,9.390,-0.562,0.125,0.000
1309315,184.31,-3.69,-17.50,-0.610,3.000,9.400,-0.187,0.062,-0.062
1309337,184.31,-3.69,-17.50,-0.600,2.990,9.400,0.000,0.062,-0.125
1309359,184.31,-3.69,-17.50,-0.590,3.010,9.380,0.187,-0.187,0.000
1309384,184.31,-3.69,-17.50,-0.600,3.040,9.410,0.187,0.000,0.062
1309406,184.31,-3.69,-17.50,-0.610,3.030,9.380,0.125,-0.125,0.187
1309428,184.31,-3.69,-17.50,-0.600,3.020,9.390,0.000,0.000,-0.125
1309454,184.31,-3.69,-17.50,-0.590,3.020,9.400,-0.125,-0.062,0.125
1309476,184.31,-3.69,-17.50,-0.580,3.020,9.420,0.062,-0.125,0.125
1309498,184.31,-3.69,-17.50,-0.600,3.010,9.410,0.125,0.000,0.187
1309524,184.31,-3.69,-17.50,-0.600,3.050,9.400,0.312,0.125,0.000
1309546,184.31,-3.69,-17.50,-0.600,3.020,9.420,0.187,-0.125,0.000
1309568,184.31,-3.69,-17.50,-0.590,3.020,9.370,-0.250,-0.062,-0.062
1309594,184.31,-3.69,-17.44,-0.630,3.020,9.430,-0.625,0.062,-0.125
1309616,184.31,-3.69,-17.44,-0.610,3.040,9.420,-0.312,-0.062,-0.125
1309638,184.31,-3.69,-17.44,-0.600,2.980,9.370,-0.062,0.062,-0.062
1309660,184.31,-3.69,-17.44,-0.600,3.000,9.390,0.187,0.125,-0.062
1309685,184.31,-3.69,-17.44,-0.600,3.020,9.380,0.125,0.000,0.000
1309707,184.31,-3.69,-17.44,-0.600,3.030,9.390,0.312,0.125,0.187
1309729,184.31,-3.69,-17.44,-0.610,3.070,9.420,0.312,-0.062,0.062
1309755,184.31,-3.69,-17.44,-0.580,3.020,9.440,-0.125,-0.062,-0.062
1309777,184.31,-3.69,-17.44,-0.590,3.020,9.410,-0.312,-0.062,-0.125
1309799,184.31,-3.69,-17.44,-0.600,3.010,9.380,-0.437,0.187,-0.187
1309825,184.31,-3.69,-17.44,-0.590,3.010,9.410,-0.125,0.000,-0.125
1309847,184.31,-3.69,-17.44,-0.610,3.020,9.390,0.000,0.250,-0.062
1309869,184.31,-3.69,-17.44,-0.600,3.030,9.400,0.000,0.312,-0.187
1309896,184.31,-3.69,-17.44,-0.630,3.010,9.430,0.062,0.187,0.000
1309918,184.31,-3.69,-17.44,-0.620,3.010,9.390,-0.250,0.250,-0.062
1309940,184.31,-3.69,-17.44,-0.600,2.990,9.410,-0.375,0.000,-0.062
1309962,184.31,-3.69,-17.44,-0.610,3.000,9.380,-0.125,-0.312,0.187
1309986,184.31,-3.69,-17.44,-0.600,3.010,9.420,0.250,-0.125,0.062
1310008,184.31,-3.69,-17.44,-0.600,3.030,9.400,0.250,0.062,0.000
1310030,184.31,-3.69,-17.44,-0.600,3.010,9.420,0.375,0.062,0.125
1310056,184.31,-3.69,-17.44,-0.620,3.030,9.410,-0.125,-0.062,-0.125
1310078,184.31,-3.69,-17.44,-0.620,3.020,9.430,-0.187,-0.062,-0.125
1310100,184.31,-3.69,-17.44,-0.600,3.000,9.420,-0.437,0.000,-0.125
1310127,184.31,-3.69,-17.44,-0.630,3.010,9.380,-0.062,-0.250,0.062
1310149,184.31,-3.69,-17.44,-0.610,3.010,9.390,0.250,-0.062,0.062
1310172,184.31,-3.69,-17.44,-0.600,3.020,9.390,0.375,-0.062,0.125
1310197,184.31,-3.69,-17.44,-0.600,3.070,9.410,0.437,-0.187,0.125
1310219,184.31,-3.69,-17.44,-0.600,3.070,9.390,0.187,-0.125,0.062
1310241,184.31,-3.69,-17.44,-0.610,3.020,9.400,0.062,0.187,-0.062
1310263,184.31,-3.69,-17.44,-0.600,3.030,9.400,-0.062,-0.187,0.062
1310287,184.31,-3.69,-17.44,-0.600,3.020,9.410,-0.125,-0.187,0.062
1310309,184.31,-3.69,-17.44,-0.620,3.000,9.400,0.125,0.062,-0.125
1310331,184.31,-3.69,-17.44,-0.610,3.010,9.390,0.312,0.125,-0.062
1310357,184.31,-3.69,-17.44,-0.590,3.000,9.510,0.187,-0.062,0.062
1310379,184.31,-3.69,-17.44,-0.630,3.030,9.340,-1.687,-1.000,0.375
1310401,184.31,-3.69,-17.44,-0.570,2.950,9.560,-0.750,-0.750,0.375
1310427,184.31,-3.69,-17.37,-0.600,2.990,9.430,-0.875,-0.187,0.187
1310449,184.31,-3.69,-17.37,-0.600,3.000,9.390,-0.812,-0.187,0.062
1310471,184.31,-3.69,-17.37,-0.610,2.960,9.380,-1.062,-0.437,0.062
1310498,184.31,-3.69,-17.31,-0.600,2.990,9.390,-0.500,-0.562,0.187
1310520,184.31,-3.69,-17.31,-0.580,2.980,9.410,0.562,0.000,0.000
1310542,184.31,-3.69,-17.37,-0.600,3.040,9.400,0.812,0.375,0.000
1310564,184.31,-3.69,-17.37,-0.590,2.990,9.420,0.625,0.187,-0.187
1310588,184.31,-3.69,-17.37,-0.610,3.020,9.370,0.812,0.250,0.000
1310610,184.31,-3.69,-17.44,-0.610,3.020,9.430,1.312,0.312,0.000
1310632,184.31,-3.69,-17.44,-0.620,3.080,9.440,1.562,0.312,-0.187
1310659,184.31,-3.69,-17.44,-0.610,3.010,9.260,0.375,0.250,-0.125
1310681,184.31,-3.69,-17.44,-0.590,3.010,9.430,0.562,-0.250,0.187
1310703,184.31,-3.69,-17.50,-0.610,3.080,9.520,0.937,0.250,0.125
1310729,184.31,-3.69,-17.50,-0.590,2.980,9.380,-0.125,-0.125,-0.062
1310751,184.31,-3.69,-17.50,-0.580,3.030,9.410,-0.125,-0.062,0.000
1310773,184.31,-3.69,-17.50,-0.630,3.060,9.460,-0.187,0.000,0.000
1310799,184.31,-3.69,-17.50,-0.610,3.000,9.380,-0.125,-0.375,0.000
1310821,184.31,-3.69,-17.50,-0.580,3.010,9.380,0.125,-0.062,0.250
1310843,184.31,-3.69,-17.50,-0.600,3.010,9.420,0.312,0.000,0.000
1310865,184.31,-3.69,-17.50,-0.600,3.050,9.410,0.312,-0.125,0.062
1310890,184.31,-3.69,-17.50,-0.590,3.010,9.450,0.062,-0.125,0.125
1310912,184.31,-3.69,-17.50,-0.600,3.030,9.400,-0.125,-0.062,-0.062
1310936,184.31,-3.69,-17.50,-0.610,3.000,9.380,-0.250,-0.062,-0.062
1310960,184.31,-3.69,-17.50,-0.590,3.020,9.380,0.062,0.062,0.125
1310982,184.31,-3.69,-17.50,-0.590,3.030,9.400,0.312,0.000,0.062
1311004,184.31,-3.69,-17.50,-0.590,3.010,9.410,0.125,0.000,0.000
1311030,184.31,-3.69,-17.50,-0.620,3.020,9.400,0.312,-0.062,0.062
1311052,184.31,-3.69,-17.50,-0.600,3.020,9.410,0.375,0.000,-0.062
1311074,184.31,-3.69,-17.50,-0.600,3.020,9.390,0.125,0.000,0.000
1311100,184.31,-3.69,-17.50,-0.610,3.030,9.420,0.062,-0.125,0.062
1311122,184.31,-3.69,-17.50,-0.600,3.040,9.430,-0.062,-0.250,0.062
1311144,184.31,-3.69,-17.50,-0.600,3.020,9.390,0.000,-0.125,0.062
1311166,184.31,-3.69,-17.50,-0.600,3.010,9.380,0.062,-0.125,0.000
1311191,184.31,-3.69,-17.50,-0.620,3.020,9.400,0.000,0.000,-0.062
1311213,184.31,-3.69,-17.50,-0.600,3.030,9.380,-0.125,0.000,0.000
1311237,184.31,-3.69,-17.50,-0.610,3.010,9.380,0.187,-0.187,0.062
1311261,184.31,-3.69,-17.50,-0.600,3.020,9.420,0.250,-0.187,0.000
1311283,184.31,-3.69,-17.50,-0.600,3.030,9.390,0.375,-0.125,0.062
1311305,184.31,-3.69,-17.50,-0.610,3.050,9.420,0.250,-0.125,0.000
1311331,184.31,-3.69,-17.50,-0.600,3.050,9.390,-0.062,0.000,-0.062
1311353,184.31,-3.69,-17.50,-0.600,3.050,9.360,0.000,0.062,0.062
1311375,184.31,-3.69,-17.50,-0.580,3.040,9.400,-0.187,-0.250,0.000
1311401,184.31,-3.69,-17.50,-0.600,3.000,9.440,-0.125,-0.187,-0.062
1311423,184.31,-3.69,-17.50,-0.610,3.000,9.390,0.062,-0.250,0.062
1311445,184.31,-3.69,-17.50,-0.610,3.010,9.410,0.250,-0.125,0.125
1311467,184.31,-3.69,-17.50,-0.610,3.020,9.380,0.062,0.000,0.125
1311492,184.31,-3.69,-17.50,-0.590,3.030,9.370,0.125,0.000,0.000
1311514,184.31,-3.69,-17.50,-0.600,3.020,9.410,0.187,0.000,0.000
1311536,184.31,-3.69,-17.50,-0.600,3.020,9.420,0.125,0.187,0.000
1311562,184.31,-3.69,-17.50,-0.600,3.010,9.410,-0.062,0.187,-0.062
1311584,184.31,-3.69,-17.50,-0.610,3.030,9.400,-0.062,0.125,-0.062
1311606,184.31,-3.69,-17.50,-0.620,3.030,9.430,-0.062,0.125,-0.125
1311632,184.31,-3.69,-17.50,-0.620,3.040,9.400,0.000,-0.187,0.062
1311654,184.31,-3.69,-17.50,-0.600,3.020,9.390,0.125,-0.062,0.062
1311676,184.31,-3.69,-17.50,-0.600,3.060,9.390,0.250,0.187,0.000
1311702,184.31,-3.69,-17.50,-0.600,3.030,9.380,-0.187,0.062,-0.125
1311724,184.31,-3.69,-17.50,-0.590,3.040,9.370,-0.375,0.125,0.000
1311746,184.31,-3.69,-17.50,-0.610,3.030,9.420,-0.187,-0.062,0.062
1311768,184.31,-3.69,-17.50,-0.610,3.030,9.420,-0.250,-0.187,0.000
1311793,184.31,-3.69,-17.50,-0.620,3.010,9.430,-0.375,-0.187,0.125
1311815,184.31,-3.69,-17.50,-0.560,3.070,9.380,-0.500,-0.312,0.312
1311837,184.31,-3.62,-17.44,-0.650,3.100,9.200,-1.375,-0.625,0.250
1311863,184.31,-3.62,-17.44,-0.590,3.040,9.520,-0.125,0.375,0.125
1311885,184.31,-3.62,-17.44,-0.640,3.010,9.370,-1.187,-0.187,0.062
1311907,184.31,-3.62,-17.37,-0.610,2.980,9.360,-1.437,-0.875,0.062
1311929,184.31,-3.62,-17.37,-0.600,3.020,9.400,-1.187,-0.375,0.187
1311954,184.31,-3.62,-17.37,-0.580,2.980,9.410,-0.500,-0.125,-0.062
1311976,184.31,-3.62,-17.37,-0.570,2.990,9.340,-0.187,-0.125,0.062
1312001,184.31,-3.62,-17.37,-0.610,2.970,9.410,0.812,0.437,-0.187
1312024,184.31,-3.62,-17.37,-0.600,3.010,9.390,1.250,0.625,-0.187
1312046,184.31,-3.62,-17.44,-0.600,3.010,9.380,1.437,0.625,-0.312
1312068,184.31,-3.62,-17.44,-0.630,3.110,9.450,1.500,0.500,-0.187
1312094,184.31,-3.62,-17.44,-0.600,3.010,9.290,0.000,-0.062,0.125
1312116,184.31,-3.62,-17.44,-0.580,3.010,9.380,0.187,0.062,0.125
1312138,184.31,-3.62,-17.44,-0.590,3.040,9.450,0.437,0.500,-0.062
1312164,184.31,-3.62,-17.44,-0.610,3.010,9.340,0.187,0.187,-0.187
1312186,184.31,-3.62,-17.44,-0.610,3.020,9.380,0.250,-0.062,-0.062
1312208,184.31,-3.62,-17.44,-0.610,3.050,9.440,0.312,0.062,-0.125
1312234,184.31,-3.62,-17.44,-0.590,3.020,9.420,0.250,0.312,-0.062
1312256,184.31,-3.62,-17.44,-0.590,3.050,9.420,0.375,0.125,0.062
1312278,184.31,-3.62,-17.44,-0.620,3.000,9.380,0.125,0.062,0.187
1312304,184.31,-3.62,-17.44,-0.580,2.980,9.370,0.000,0.000,-0.125
1312326,184.31,-3.62,-17.44,-0.610,3.010,9.380,0.250,0.250,0.125
1312348,184.31,-3.62,-17.44,-0.600,3.040,9.410,0.375,0.312,-0.062
1312370,184.31,-3.62,-17.44,-0.600,3.030,9.410,0.187,0.062,0.062
1312395,184.31,-3.62,-17.44,-0.590,3.010,9.420,0.187,-0.187,0.000
1312417,184.31,-3.62,-17.44,-0.600,3.030,9.410,-0.125,0.125,-0.062
1312439,184.31,-3.62,-17.44,-0.610,3.010,9.400,-0.187,0.062,-0.062
1312465,184.31,-3.62,-17.44,-0.610,3.040,9.410,-0.125,0.250,0.062
1312487,184.31,-3.62,-17.44,-0.590,3.030,9.400,0.062,0.062,0.062
1312509,184.31,-3.62,-17.44,-0.610,3.020,9.400,-0.062,-0.125,0.062
1312535,184.31,-3.62,-17.44,-0.610,3.010,9.410,0.125,-0.062,-0.062
1312557,184.31,-3.62,-17.44,-0.600,3.010,9.400,0.375,-0.062,0.000
1312579,184.31,-3.62,-17.44,-0.610,3.020,9.360,0.125,0.062,-0.125
1312605,184.31,-3.62,-17.44,-0.590,3.010,9.420,0.187,0.125,0.000
1312627,184.31,-3.62,-17.44,-0.620,3.040,9.410,0.000,0.062,0.000
1312649,184.31,-3.62,-17.44,-0.590,3.040,9.430,0.187,-0.062,0.000
1312671,184.31,-3.62,-17.44,-0.610,3.020,9.400,0.000,0.062,0.125
1312696,184.31,-3.62,-17.44,-0.600,3.010,9.370,-0.062,0.125,0.000
1312718,184.31,-3.62,-17.44,-0.600,3.030,9.440,-0.250,0.062,-0.062
1312740,184.31,-3.62,-17.44,-0.600,3.020,9.360,-0.062,0.062,0.000
1312766,184.31,-3.62,-17.44,-0.610,3.030,9.420,0.312,0.062,-0.062
1312788,184.31,-3.62,-17.44,-0.580,3.020,9.420,0.250,0.062,-0.187
1312810,184.31,-3.62,-17.44,-0.620,3.030,9.410,0.000,0.062,-0.062
1312836,184.31,-3.62,-17.44,-0.610,3.010,9.390,-0.187,-0.062,0.062
1312858,184.31,-3.62,-17.44,-0.600,3.020,9.390,-0.187,0.062,-0.125
1312880,184.31,-3.62,-17.44,-0.610,3.020,9.390,-0.062,0.062,0.062
1312907,184.31,-3.62,-17.44,-0.620,3.020,9.400,0.125,0.062,0.000
1312929,184.31,-3.62,-17.44,-0.600,3.030,9.370,0.250,0.000,-0.062
1312952,184.31,-3.62,-17.44,-0.600,3.040,9.400,0.312,0.000,-0.062
1312975,184.31,-3.62,-17.44,-0.610,3.040,9.400,-0.187,-0.062,-0.062
1312998,184.31,-3.62,-17.44,-0.600,3.030,9.420,-0.187,0.000,-0.125
1313020,184.31,-3.62,-17.44,-0.620,3.030,9.390,-0.187,0.000,0.125
1313047,184.31,-3.62,-17.44,-0.630,3.000,9.380,-0.062,-0.062,0.000
1313069,184.31,-3.62,-17.44,-0.610,3.020,9.390,0.125,0.000,0.062
1313091,184.31,-3.62,-17.44,-0.610,3.040,9.400,0.250,0.000,0.062
1313117,184.31,-3.62,-17.44,-0.610,3.020,9.390,0.062,0.062,-0.062
1313139,184.31,-3.62,-17.44,-0.600,3.040,9.390,-0.125,0.125,-0.062
1313161,184.31,-3.62,-17.44,-0.610,3.040,9.410,-0.062,-0.187,0.125
1313188,184.31,-3.62,-17.44,-0.610,3.090,9.360,-1.250,-0.500,0.187
1313210,184.31,-3.62,-17.37,-0.600,2.980,9.430,-1.937,-0.812,0.187
1313232,184.31,-3.62,-17.37,-0.560,2.970,9.470,-1.750,-0.687,0.375
1313258,184.31,-3.62,-17.31,-0.610,2.980,9.380,-1.125,-0.187,-0.062
1313280,184.31,-3.62,-17.31,-0.600,2.990,9.400,-0.562,-0.250,0.000
1313302,184.31,-3.62,-17.31,-0.580,2.960,9.380,-0.062,-0.187,0.062
1313324,184.31,-3.62,-17.31,-0.600,2.990,9.350,0.750,0.062,-0.062
1313348,184.31,-3.62,-17.31,-0.610,3.000,9.430,1.000,0.375,-0.062
1313370,184.31,-3.62,-17.37,-0.600,3.020,9.420,1.125,0.500,-0.312
1313392,184.31,-3.62,-17.37,-0.590,3.030,9.410,1.000,0.312,-0.062
1313418,184.31,-3.62,-17.44,-0.620,3.060,9.440,0.750,0.062,-0.125
1313440,184.31,-3.62,-17.44,-0.580,2.960,9.380,0.375,0.062,-0.062
1313462,184.31,-3.62,-17.44,-0.590,3.010,9.350,0.062,0.187,0.125
1313488,184.31,-3.62,-17.44,-0.610,3.020,9.450,0.562,0.187,-0.125
1313510,184.31,-3.62,-17.44,-0.620,2.990,9.380,0.562,0.312,-0.062
1313532,184.31,-3.62,-17.44,-0.600,2.980,9.370,0.750,0.250,-0.187
1313559,184.31,-3.62,-17.44,-0.630,3.030,9.390,0.437,0.062,-0.062
1313581,184.31,-3.62,-17.44,-0.600,3.050,9.450,0.000,-0.125,0.000
1313603,184.31,-3.62,-17.44,-0.600,3.020,9.370,-0.437,-0.375,0.062
1313625,184.31,-3.62,-17.44,-0.590,3.010,9.400,-0.250,0.000,0.000
1313649,184.31,-3.62,-17.44,-0.590,2.990,9.380,-0.187,-0.062,-0.062
1313671,184.31,-3.62,-17.44,-0.600,2.990,9.380,-0.062,-0.062,0.000
1313693,184.31,-3.62,-17.44,-0.600,2.990,9.410,0.375,-0.125,-0.062
1313720,184.31,-3.62,-17.44,-0.610,3.050,9.390,0.375,0.125,-0.062
1313742,184.31,-3.62,-17.44,-0.610,3.040,9.420,0.187,0.000,-0.062
1313766,184.31,-3.62,-17.44,-0.610,3.040,9.410,-0.250,-0.125,-0.062
1313790,184.31,-3.62,-17.44,-0.610,3.020,9.390,-0.312,-0.125,0.000
1313812,184.31,-3.62,-17.44,-0.600,3.010,9.400,-0.312,-0.250,0.125
1313835,184.31,-3.62,-17.44,-0.600,3.030,9.400,-0.187,0.062,-0.125
1313860,184.31,-3.62,-17.44,-0.600,3.010,9.400,-0.562,-0.125,0.062
1313882,184.31,-3.62,-17.44,-0.600,3.020,9.400,-1.062,-0.312,0.125
1313904,184.31,-3.62,-17.37,-0.600,3.020,9.430,-0.687,-0.375,0.187
1313926,184.31,-3.62,-17.37,-0.590,3.010,9.400,-0.562,0.000,-0.125
1313951,184.31,-3.62,-17.37,-0.600,3.010,9.390,-0.562,-0.250,0.062
1313973,184.31,-3.62,-17.37,-0.600,3.010,9.430,-0.375,-0.437,0.062
1313998,184.31,-3.62,-17.37,-0.570,2.980,9.430,0.312,-0.062,0.062
1314021,184.31,-3.62,-17.37,-0.610,3.010,9.390,0.500,0.250,-0.062
1314043,184.31,-3.62,-17.37,-0.600,3.010,9.400,0.750,0.312,-0.062
1314066,184.31,-3.62,-17.44,-0.570,3.020,9.420,0.687,0.250,0.000
1314091,184.31,-3.62,-17.44,-0.610,3.030,9.460,0.750,0.437,-0.312
1314113,184.31,-3.62,-17.44,-0.610,3.020,9.370,0.437,0.187,-0.187
1314135,184.31,-3.62,-17.44,-0.600,3.000,9.370,0.312,-0.062,0.000
1314161,184.31,-3.62,-17.44,-0.590,3.030,9.450,0.625,0.187,-0.062
1314183,184.31,-3.62,-17.44,-0.600,3.020,9.390,0.625,0.187,-0.187
1314205,184.31,-3.62,-17.44,-0.590,3.040,9.360,0.875,0.125,-0.125
1314227,184.31,-3.62,-17.44,-0.610,3.030,9.410,0.250,-0.062,0.000
1314252,184.31,-3.62,-17.44,-0.610,3.010,9.420,-0.062,-0.250,0.000
1314274,184.31,-3.62,-17.44,-0.600,3.030,9.390,-0.375,-0.062,0.000
1314299,184.31,-3.62,-17.44,-0.600,2.990,9.380,-0.187,-0.062,-0.062
1314322,184.31,-3.62,-17.44,-0.590,3.010,9.390,0.062,0.062,0.062
1314344,184.31,-3.62,-17.44,-0.600,3.030,9.420,0.187,0.125,0.000
1314368,184.31,-3.62,-17.44,-0.600,3.030,9.400,0.437,0.062,0.000
1314392,184.31,-3.62,-17.44,-0.610,3.030,9.390,0.500,-0.062,0.000
1314414,184.31,-3.62,-17.44,-0.610,3.050,9.410,0.062,0.000,0.000
1314436,184.31,-3.62,-17.44,-0.610,3.040,9.370,-0.250,0.062,0.000
1314462,184.31,-3.62,-17.44,-0.600,3.020,9.380,-0.312,-0.062,0.000
1314484,184.31,-3.62,-17.44,-0.590,3.010,9.380,-0.187,-0.062,0.000
1314506,184.31,-3.62,-17.44,-0.610,3.010,9.410,0.000,0.062,-0.187
1314528,184.31,-3.62,-17.44,-0.600,3.040,9.430,0.250,0.187,-0.062
1314553,184.31,-3.62,-17.44,-0.610,3.030,9.400,0.312,0.125,-0.062
1314575,184.31,-3.62,-17.44,-0.600,3.020,9.410,0.187,0.062,-0.062
1314600,184.31,-3.62,-17.44,-0.600,3.030,9.390,-0.062,0.062,-0.062
1314623,184.31,-3.62,-17.44,-0.600,3.040,9.410,0.125,0.000,0.000
1314645,184.31,-3.62,-17.44,-0.600,3.010,9.380,0.125,0.000,-0.062
1314669,184.31,-3.62,-17.44,-0.570,3.010,9.380,0.000,0.125,0.000
1314693,184.31,-3.62,-17.44,-0.600,3.020,9.380,0.187,0.000,-0.062
1314715,184.31,-3.62,-17.44,-0.630,3.030,9.410,0.312,0.125,0.000
1314737,184.31,-3.62,-17.44,-0.610,3.030,9.390,0.250,0.187,-0.187
1314763,184.31,-3.62,-17.44,-0.600,3.050,9.380,0.187,0.000,-0.125
1314785,184.31,-3.62,-17.44,-0.620,3.030,9.380,0.125,0.000,-0.062
1314807,184.31,-3.62,-17.44,-0.620,3.030,9.390,0.062,-0.062,0.062
1314829,184.31,-3.62,-17.44,-0.610,3.010,9.400,-0.625,-0.250,0.000
1314854,184.31,-3.62,-17.44,-0.600,3.010,9.430,-0.375,0.000,-0.125
1314876,184.31,-3.62,-17.44,-0.600,3.040,9.400,-0.187,0.062,-0.187
1314901,184.31,-3.62,-17.44,-0.630,3.030,9.370,-0.250,0.062,-0.187
1314924,184.31,-3.62,-17.44,-0.600,3.020,9.380,-0.125,0.000,-0.062
1314946,184.31,-3.62,-17.44,-0.590,3.050,9.420,0.062,-0.187,0.125
1314969,184.31,-3.62,-17.44,-0.590,3.030,9.400,0.062,0.187,0.062
1314994,184.31,-3.62,-17.44,-0.600,3.000,9.380,-0.062,-0.125,-0.062
1315016,184.31,-3.62,-17.44,-0.600,2.980,9.380,-0.187,0.000,-0.062
1315038,184.31,-3.62,-17.44,-0.600,3.030,9.410,0.000,-0.187,-0.062
1315064,184.31,-3.62,-17.44,-0.620,3.010,9.380,0.062,0.000,0.000
1315086,184.31,-3.62,-17.44,-0.610,3.020,9.380,-0.062,-0.062,-0.062
1315108,184.31,-3.62,-17.44,-0.590,3.020,9.390,0.437,0.000,0.187
1315130,184.31,-3.62,-17.44,-0.600,3.040,9.370,0.125,0.062,0.125
1315155,184.31,-3.62,-17.44,-0.600,3.020,9.390,0.437,0.000,0.125
1315177,184.31,-3.62,-17.44,-0.600,3.020,9.390,0.500,0.125,0.125
1315201,184.31,-3.62,-17.50,-0.610,3.050,9.390,0.687,0.062,0.187
1315225,184.37,-3.62,-17.50,-0.650,3.020,9.380,0.875,-0.062,0.312
1315247,184.37,-3.62,-17.50,-0.620,3.030,9.360,1.000,-0.125,0.437
1315269,184.37,-3.62,-17.56,-0.580,3.070,9.380,0.687,0.250,-0.125
1315295,184.37,-3.62,-17.56,-0.620,3.050,9.410,0.687,0.312,0.062
1315317,184.37,-3.62,-17.56,-0.590,3.050,9.400,0.312,0.250,-0.125
1315339,184.37,-3.62,-17.56,-0.640,3.030,9.370,-0.062,0.062,0.062
1315365,184.37,-3.62,-17.56,-0.610,3.040,9.400,-0.187,-0.187,0.125
1315387,184.37,-3.62,-17.56,-0.610,3.040,9.400,-0.062,-0.187,0.000
1315409,184.37,-3.62,-17.56,-0.600,3.030,9.390,0.125,-0.250,0.125
1315431,184.37,-3.62,-17.56,-0.610,3.030,9.370,0.312,-0.062,0.062
1315456,184.37,-3.62,-17.56,-0.590,3.060,9.390,0.375,0.125,0.062
1315478,184.37,-3.62,-17.56,-0.610,3.070,9.390,0.187,0.000,0.125
1315502,184.37,-3.62,-17.56,-0.610,3.030,9.390,-0.125,0.125,0.000
1315526,184.37,-3.62,-17.56,-0.610,3.010,9.380,0.062,0.062,0.062
1315548,184.37,-3.62,-17.56,-0.610,3.030,9.390,0.187,0.187,0.000
1315570,184.37,-3.62,-17.56,-0.590,3.030,9.410,0.000,-0.062,0.062
1315596,184.37,-3.62,-17.56,-0.610,3.040,9.380,0.375,-0.062,0.000
1315618,184.37,-3.62,-17.56,-0.610,3.040,9.400,0.437,0.187,-0.062
1315640,184.37,-3.62,-17.56,-0.600,3.040,9.380,0.500,0.187,-0.062
1315666,184.37,-3.62,-17.56,-0.620,3.050,9.390,0.312,-0.062,0.125
1315688,184.37,-3.62,-17.56,-0.660,3.050,9.370,-1.125,-0.375,-0.062
1315710,184.37,-3.62,-17.50,-0.610,3.040,9.390,-1.000,-0.312,0.062
1315732,184.37,-3.62,-17.50,-0.580,3.030,9.440,-0.375,0.250,-0.062
1315757,184.37,-3.62,-17.50,-0.610,2.990,9.380,-0.187,0.187,-0.187
1315779,184.37,-3.62,-17.50,-0.620,3.010,9.390,0.062,0.125,0.000
1315801,184.37,-3.62,-17.50,-0.600,3.050,9.390,0.437,-0.125,0.125
1315827,184.37,-3.62,-17.50,-0.600,3.050,9.410,0.500,-0.062,0.062
1315849,184.37,-3.62,-17.50,-0.600,3.040,9.380,0.125,-0.125,0.187
1315871,184.37,-3.62,-17.50,-0.610,3.060,9.400,-0.187,-0.187,0.062
1315897,184.37,-3.62,-17.50,-0.620,3.030,9.390,-0.750,-0.062,0.125
1315919,184.31,-3.62,-17.50,-0.600,3.040,9.400,-0.562,0.062,0.000
1315941,184.31,-3.62,-17.50,-0.620,3.050,9.380,-0.250,-0.312,0.187
1315967,184.31,-3.62,-17.50,-0.600,3.010,9.420,0.312,-0.125,0.062
1315989,184.31,-3.62,-17.50,-0.590,3.030,9.420,0.375,-0.125,0.187
1316011,184.31,-3.62,-17.50,-0.590,3.010,9.400,-0.062,-0.062,0.125
1316033,184.31,-3.62,-17.50,-0.610,3.030,9.390,-0.187,-0.187,0.312
1316058,184.31,-3.62,-17.50,-0.600,3.030,9.390,-0.375,-0.250,0.187
1316080,184.31,-3.62,-17.50,-0.600,3.020,9.390,-0.562,-0.125,0.125
1316103,184.31,-3.62,-17.50,-0.600,3.020,9.400,0.000,-0.250,0.187
1316128,184.31,-3.62,-17.50,-0.600,3.030,9.400,0.062,-0.062,0.125
1316150,184.31,-3.62,-17.50,-0.600,3.020,9.410,0.125,0.062,0.000
1316172,184.31,-3.62,-17.50,-0.620,3.020,9.380,0.062,0.125,0.125
1316198,184.31,-3.62,-17.50,-0.600,3.040,9.390,0.125,0.125,0.125
1316220,184.31,-3.62,-17.50,-0.610,3.020,9.400,-0.062,-0.125,0.062
1316242,184.31,-3.62,-17.50,-0.600,3.030,9.380,-0.062,-0.187,0.187
1316268,184.31,-3.62,-17.50,-0.590,3.030,9.410,-0.250,0.000,0.062
1316290,184.31,-3.62,-17.50,-0.620,3.040,9.360,-0.187,-0.187,0.125
1316312,184.31,-3.62,-17.50,-0.590,3.010,9.410,0.000,-0.062,0.062
1316334,184.31,-3.62,-17.50,-0.610,3.010,9.380,-0.062,0.062,-0.125
1316359,184.31,-3.62,-17.50,-0.590,3.030,9.400,0.187,0.000,0.062
1316381,184.31,-3.62,-17.50,-0.600,3.020,9.390,0.312,0.000,0.062
1316403,184.31,-3.62,-17.50,-0.610,3.020,9.410,0.437,0.062,0.000
1316429,184.31,-3.62,-17.50,-0.610,3.070,9.430,0.250,0.000,0.187
1316451,184.31,-3.62,-17.50,-0.600,3.020,9.380,0.187,-0.250,0.000
1316473,184.31,-3.62,-17.50,-0.590,3.050,9.420,0.062,-0.062,0.062
1316499,184.31,-3.62,-17.50,-0.580,2.990,9.430,-0.062,-0.187,0.062
1316521,184.31,-3.62,-17.50,-0.610,2.990,9.390,0.000,0.062,0.062
1316543,184.31,-3.62,-17.50,-0.610,3.010,9.380,0.312,0.250,0.062
1316569,184.31,-3.62,-17.50,-0.630,3.060,9.390,0.062,-0.125,0.125
1316591,184.31,-3.62,-17.50,-0.610,3.040,9.410,0.187,-0.125,0.125
1316613,184.31,-3.62,-17.50,-0.590,3.040,9.420,0.062,-0.187,0.250
1316635,184.31,-3.62,-17.50,-0.600,3.010,9.410,-0.500,-0.437,0.312
1316660,184.31,-3.62,-17.50,-0.600,3.000,9.400,-0.187,0.000,0.062
1316682,184.31,-3.62,-17.50,-0.600,3.010,9.400,0.250,0.125,0.125
1316704,184.31,-3.62,-17.50,-0.590,2.990,9.370,0.562,0.187,0.125
1316730,184.37,-3.62,-17.50,-0.600,3.020,9.410,0.500,0.312,0.062
1316752,184.37,-3.62,-17.50,-0.610,3.040,9.410,0.312,0.000,-0.062
1316774,184.37,-3.62,-17.50,-0.600,3.040,9.440,0.187,0.187,-0.062
1316800,184.37,-3.62,-17.50,-0.580,3.030,9.410,-0.062,0.250,-0.125
1316822,184.37,-3.62,-17.50,-0.610,3.020,9.400,-0.125,0.187,-0.125
1316844,184.37,-3.62,-17.50,-0.610,3.000,9.390,-0.125,0.187,-0.125
1316870,184.37,-3.62,-17.50,-0.590,3.010,9.390,0.125,0.250,-0.125
1316892,184.37,-3.62,-17.50,-0.610,3.020,9.400,0.250,0.187,-0.187
1316914,184.37,-3.62,-17.50,-0.600,3.030,9.380,0.062,-0.062,-0.125
1316936,184.37,-3.62,-17.50,-0.600,3.020,9.410,-0.625,-0.062,-0.062
1316961,184.31,-3.62,-17.50,-0.600,3.030,9.390,-0.312,-0.312,0.000
1316983,184.31,-3.62,-17.50,-0.590,3.020,9.420,-0.312,0.125,-0.187
1317005,184.31,-3.62,-17.50,-0.600,3.040,9.370,-0.250,0.062,-0.062
1317031,184.31,-3.62,-17.50,-0.590,3.010,9.390,0.375,-0.062,0.062
1317053,184.31,-3.62,-17.50,-0.620,3.020,9.380,0.437,0.250,-0.062
1317075,184.31,-3.62,-17.50,-0.600,3.010,9.440,0.562,0.375,-0.187
1317101,184.31,-3.62,-17.50,-0.600,3.020,9.370,0.312,0.250,-0.125
1317123,184.31,-3.62,-17.50,-0.610,3.030,9.420,0.500,0.062,-0.187
1317145,184.31,-3.62,-17.50,-0.590,3.040,9.420,0.062,0.062,-0.062
1317171,184.31,-3.62,-17.50,-0.590,3.010,9.400,0.000,0.187,-0.062
1317193,184.31,-3.62,-17.50,-0.600,3.020,9.360,-0.125,0.125,-0.062
1317215,184.31,-3.62,-17.50,-0.630,3.050,9.380,-0.187,0.125,-0.312
1317237,184.31,-3.62,-17.50,-0.610,3.010,9.420,0.125,0.312,-0.250
1317262,184.37,-3.62,-17.50,-0.620,3.030,9.430,0.750,0.187,-0.312
1317284,184.37,-3.62,-17.50,-0.590,3.040,9.400,0.562,0.312,-0.250
1317306,184.37,-3.62,-17.50,-0.650,3.120,9.480,0.250,0.125,-0.062
1317332,184.31,-3.62,-17.50,-0.550,3.030,9.390,-0.687,-0.375,-0.125
1317354,184.31,-3.62,-17.50,-0.570,3.030,9.470,-0.500,0.250,-0.250
1317376,184.31,-3.62,-17.44,-0.550,3.110,9.330,-1.250,0.000,-0.500
1317402,184.31,-3.62,-17.44,-0.620,2.910,9.490,-0.875,0.062,-0.125
1317424,184.31,-3.62,-17.44,-0.590,3.010,9.390,-0.125,-0.125,-0.062
1317446,184.31,-3.62,-17.44,-0.630,2.960,9.380,0.562,0.187,0.125
1317473,184.31,-3.62,-17.44,-0.600,3.050,9.400,0.750,0.062,0.062
1317495,184.31,-3.62,-17.44,-0.600,3.000,9.370,0.375,0.187,0.062
1317518,184.31,-3.62,-17.44,-0.590,3.060,9.470,0.500,0.062,-0.062
1317540,184.31,-3.62,-17.44,-0.610,3.050,9.390,-0.062,-0.250,0.000
1317564,184.31,-3.62,-17.44,-0.590,3.000,9.390,-0.250,-0.312,0.000
1317586,184.31,-3.62,-17.44,-0.610,2.990,9.380,-0.250,-0.125,0.000
1317613,184.31,-3.62,-17.44,-0.580,2.990,9.380,0.062,-0.250,-0.062
1317635,184.31,-3.62,-17.44,-0.590,3.010,9.400,0.187,0.187,0.000
1317657,184.31,-3.62,-17.44,-0.580,3.040,9.440,0.312,0.250,-0.312
1317684,184.31,-3.62,-17.44,-0.590,3.010,9.400,0.250,0.000,0.000
1317706,184.31,-3.62,-17.44,-0.580,3.010,9.400,0.000,0.250,-0.125
1317731,184.31,-3.62,-17.44,-0.600,3.000,9.430,-0.062,-0.062,-0.125
1317754,184.31,-3.62,-17.44,-0.590,3.000,9.390,-0.187,0.187,-0.187
1317776,184.31,-3.62,-17.44,-0.610,3.010,9.390,-0.125,-0.125,-0.125
1317799,184.31,-3.62,-17.44,-0.590,3.000,9.410,0.250,0.125,-0.125
1317824,184.31,-3.62,-17.44,-0.600,3.040,9.410,0.500,0.250,-0.187
1317846,184.31,-3.62,-17.44,-0.610,3.040,9.400,0.687,0.187,-0.062
1317868,184.31,-3.62,-17.44,-0.610,3.030,9.390,0.437,-0.125,0.000
1317890,184.31,-3.62,-17.44,-0.590,3.010,9.420,0.125,0.062,0.000
1317914,184.31,-3.62,-17.44,-0.600,3.010,9.400,0.000,-0.187,-0.125
1317936,184.31,-3.62,-17.44,-0.600,3.000,9.410,0.000,-0.125,-0.125
1317958,184.31,-3.62,-17.44,-0.580,3.000,9.390,0.125,-0.250,0.125
1317985,184.31,-3.62,-17.44,-0.600,3.000,9.410,0.375,0.000,0.000
1318007,184.31,-3.62,-17.44,-0.600,3.020,9.390,0.375,0.125,-0.062
1318031,184.31,-3.62,-17.44,-0.600,3.020,9.380,0.312,0.062,-0.125
1318055,184.31,-3.62,-17.44,-0.600,3.040,9.420,0.250,0.187,-0.312
1318077,184.31,-3.62,-17.44,-0.600,3.040,9.420,0.062,0.125,-0.125
1318100,184.31,-3.62,-17.44,-0.620,3.030,9.390,0.000,-0.062,-0.125
1318125,184.31,-3.62,-17.44,-0.610,3.010,9.380,0.125,-0.062,-0.125
1318147,184.31,-3.62,-17.44,-0.620,3.020,9.380,0.375,-0.125,0.000
1318169,184.31,-3.62,-17.50,-0.590,3.020,9.380,0.750,0.000,0.062
1318191,184.31,-3.62,-17.50,-0.580,3.050,9.400,0.562,0.187,0.000
1318216,184.31,-3.62,-17.50,-0.610,3.030,9.400,0.562,0.125,-0.125
1318238,184.31,-3.62,-17.50,-0.610,3.030,9.410,-0.125,0.062,-0.062
1318263,184.31,-3.62,-17.50,-0.600,3.020,9.390,-0.250,-0.062,-0.125
1318286,184.31,-3.62,-17.50,-0.600,3.010,9.400,-0.375,0.062,0.000
1318308,184.31,-3.62,-17.50,-0.600,3.010,9.400,-0.187,0.125,0.000
1318332,184.31,-3.62,-17.50,-0.580,3.030,9.410,0.250,-0.125,0.000
1318356,184.31,-3.62,-17.50,-0.580,3.040,9.400,0.187,0.125,0.062
1318378,184.31,-3.62,-17.50,-0.600,3.050,9.390,-0.062,0.062,0.062
1318400,184.31,-3.62,-17.50,-0.600,3.040,9.400,-0.250,0.062,0.125
1318426,184.31,-3.62,-17.50,-0.600,3.010,9.390,-0.437,-0.187,0.062
1318448,184.31,-3.62,-17.50,-0.610,3.020,9.400,-0.250,-0.125,0.000
1318470,184.31,-3.62,-17.50,-0.590,3.010,9.380,-0.062,0.062,0.000
1318492,184.31,-3.62,-17.50,-0.570,3.000,9.410,0.437,0.000,-0.125
1318517,184.37,-3.62,-17.50,-0.620,3.030,9.390,0.562,0.250,-0.125
1318539,184.37,-3.62,-17.50,-0.600,3.060,9.410,0.687,0.500,-0.125
1318563,184.37,-3.62,-17.50,-0.600,3.050,9.400,0.062,0.187,-0.062
1318587,184.37,-3.62,-17.50,-0.590,3.060,9.410,-0.062,0.062,0.000
1318609,184.37,-3.62,-17.50,-0.600,3.040,9.420,-0.375,-0.062,0.000
1318632,184.37,-3.62,-17.50,-0.590,3.050,9.410,-0.562,0.125,-0.062
1318657,184.37,-3.62,-17.50,-0.580,3.010,9.380,-0.375,0.000,0.000
1318679,184.37,-3.62,-17.50,-0.610,3.020,9.380,-0.125,0.125,-0.125
1318701,184.37,-3.62,-17.50,-0.600,3.020,9.380,0.062,0.125,-0.125
1318727,184.37,-3.62,-17.50,-0.600,3.030,9.390,0.250,0.187,-0.062
1318749,184.37,-3.62,-17.50,-0.580,3.040,9.390,0.125,0.312,-0.125
1318771,184.37,-3.62,-17.50,-0.580,3.040,9.400,0.000,0.312,-0.187
1318793,184.37,-3.62,-17.50,-0.620,3.070,9.430,-0.250,0.250,0.000
1318818,184.37,-3.62,-17.50,-0.620,3.050,9.400,-0.437,0.250,-0.125
1318840,184.37,-3.62,-17.50,-0.610,3.050,9.410,-0.625,0.250,-0.062
1318864,184.31,-3.62,-17.50,-0.590,3.020,9.380,-0.687,0.125,-0.062
1318888,184.31,-3.62,-17.44,-0.600,3.010,9.380,-0.437,0.187,-0.062
1318910,184.31,-3.62,-17.44,-0.590,3.010,9.390,-0.187,0.312,-0.125
1318933,184.31,-3.62,-17.44,-0.610,3.010,9.400,0.312,0.250,-0.062
1318958,184.31,-3.62,-17.44,-0.600,3.050,9.400,0.312,0.250,-0.062
1318980,184.31,-3.62,-17.44,-0.620,3.030,9.400,0.187,0.125,0.062
1319002,184.31,-3.62,-17.44,-0.620,3.060,9.380,-0.125,0.250,-0.062
1319028,184.31,-3.62,-17.44,-0.610,3.030,9.410,-0.625,0.187,-0.125
1319050,184.31,-3.62,-17.44,-0.610,3.020,9.360,-0.562,0.187,-0.125
1319072,184.31,-3.62,-17.44,-0.620,3.010,9.380,-0.500,0.125,-0.250
1319094,184.31,-3.62,-17.44,-0.600,3.020,9.400,-0.062,0.062,-0.125
1319119,184.31,-3.62,-17.44,-0.600,3.060,9.380,0.187,0.187,-0.125
1319141,184.31,-3.62,-17.44,-0.610,3.040,9.430,0.187,0.187,0.000
1319165,184.31,-3.62,-17.44,-0.610,3.050,9.430,-0.187,0.000,-0.125
1319189,184.31,-3.62,-17.44,-0.620,3.020,9.400,-0.437,0.125,0.125
1319211,184.31,-3.62,-17.44,-0.640,3.030,9.390,-0.750,0.062,-0.187
1319233,184.31,-3.62,-17.44,-0.600,3.010,9.410,-0.687,0.000,-0.125
1319259,184.31,-3.62,-17.44,-0.590,3.010,9.400,-0.187,-0.062,0.000
1319281,184.31,-3.62,-17.44,-0.600,3.020,9.390,0.312,0.062,-0.062
1319303,184.31,-3.62,-17.44,-0.600,3.040,9.410,0.812,0.062,0.062
1319329,184.31,-3.62,-17.44,-0.600,3.060,9.430,0.437,0.000,0.062
1319351,184.31,-3.62,-17.44,-0.620,3.040,9.390,0.125,-0.062,0.062
1319373,184.31,-3.62,-17.44,-0.620,3.040,9.410,-0.500,-0.062,0.062
1319395,184.31,-3.62,-17.44,-0.610,3.010,9.430,-0.562,-0.312,0.187
1319420,184.31,-3.62,-17.44,-0.600,3.000,9.390,-0.250,-0.250,0.125
1319442,184.31,-3.62,-17.44,-0.590,3.000,9.370,0.375,-0.312,0.187
1319464,184.31,-3.62,-17.44,-0.610,3.020,9.380,0.750,0.062,0.187
1319490,184.31,-3.62,-17.50,-0.600,3.060,9.380,0.812,0.062,0.062
1319512,184.31,-3.62,-17.50,-0.600,3.050,9.440,0.500,0.062,0.062
1319534,184.31,-3.62,-17.50,-0.620,3.070,9.430,-0.062,0.000,0.000
1319560,184.31,-3.62,-17.50,-0.600,3.010,9.400,-0.500,-0.062,0.000
1319582,184.31,-3.62,-17.50,-0.610,3.020,9.390,-0.250,-0.125,0.062
1319604,184.31,-3.62,-17.50,-0.610,3.020,9.380,-0.062,0.000,0.062
1319630,184.31,-3.62,-17.50,-0.630,3.040,9.420,0.562,0.125,0.062
1319652,184.37,-3.62,-17.50,-0.610,3.050,9.390,0.750,0.000,0.125
1319674,184.37,-3.62,-17.50,-0.600,3.060,9.410,0.625,0.062,0.062
1319696,184.37,-3.62,-17.50,-0.620,3.080,9.410,-0.125,-0.062,0.062
1319721,184.37,-3.62,-17.50,-0.600,3.030,9.390,-0.500,0.125,0.062
1319743,184.37,-3.62,-17.50,-0.580,3.020,9.380,-0.625,-0.250,0.125
1319767,184.37,-3.62,-17.50,-0.600,2.990,9.380,-0.187,-0.187,0.062
1319791,184.37,-3.62,-17.50,-0.600,3.020,9.380,0.187,0.125,0.000
1319813,184.37,-3.62,-17.50,-0.620,3.030,9.370,0.500,0.125,-0.125
1319835,184.37,-3.62,-17.50,-0.610,3.040,9.410,0.625,0.187,0.000
1319861,184.37,-3.62,-17.50,-0.600,3.080,9.410,0.312,0.250,0.000
1319883,184.37,-3.62,-17.50,-0.600,3.040,9.410,-0.062,0.000,0.062
1319905,184.37,-3.62,-17.50,-0.620,3.020,9.380,-0.250,0.125,-0.187
1319931,184.37,-3.62,-17.50,-0.620,3.050,9.370,-0.125,0.000,0.000
1319953,184.37,-3.62,-17.50,-0.600,3.000,9.370,0.062,-0.125,0.062
1319975,184.37,-3.62,-17.50,-0.610,3.030,9.420,0.250,-0.062,0.125
1319997,184.37,-3.62,-17.50,-0.590,3.010,9.410,0.437,-0.062,0.187
1320022,184.37,-3.62,-17.50,-0.600,3.030,9.380,0.125,-0.062,0.250
1320044,184.37,-3.62,-17.50,-0.600,3.030,9.390,-0.312,-0.187,0.250
1320067,184.37,-3.62,-17.50,-0.620,3.010,9.390,-0.937,-0.062,0.062
1320092,184.31,-3.62,-17.50,-0.580,3.010,9.370,-0.937,-0.187,-0.062
1320114,184.31,-3.62,-17.50,-0.570,3.020,9.390,-0.812,-0.250,-0.187
1320136,184.31,-3.62,-17.50,-0.560,3.030,9.470,-0.250,-0.187,-0.062
1320162,184.31,-3.62,-17.50,-0.620,3.040,9.500,0.562,0.062,-0.062
1320184,184.37,-3.62,-17.50,-0.640,3.030,9.430,1.312,0.250,-0.062
1320206,184.37,-3.62,-17.50,-0.650,3.040,9.330,1.187,0.187,0.062
1320232,184.37,-3.62,-17.50,-0.620,3.050,9.390,-0.812,-0.437,0.375
1320254,184.37,-3.62,-17.50,-0.550,3.020,9.400,-1.187,-0.500,0.375
1320276,184.31,-3.62,-17.50,-0.520,3.010,9.410,-0.812,0.062,0.062
1320298,184.31,-3.62,-17.50,-0.590,3.020,9.410,0.125,0.375,-0.187
1320323,184.31,-3.62,-17.50,-0.650,3.010,9.380,0.187,0.125,0.000
1320345,184.31,-3.62,-17.50,-0.650,2.990,9.330,0.250,-0.062,0.125
1320368,184.31,-3.62,-17.50,-0.580,3.010,9.370,0.375,0.187,0.062
1320393,184.31,-3.62,-17.50,-0.580,3.060,9.410,0.187,0.125,-0.062
1320415,184.31,-3.62,-17.50,-0.600,3.050,9.400,0.062,0.125,0.000
1320437,184.31,-3.62,-17.50,-0.620,3.060,9.440,-0.187,0.187,-0.187
1320463,184.31,-3.62,-17.50,-0.620,3.020,9.410,-0.125,-0.312,0.125
1320485,184.31,-3.62,-17.50,-0.620,3.010,9.390,-0.125,-0.312,0.125
1320507,184.31,-3.62,-17.50,-0.610,2.980,9.380,0.062,-0.062,0.062
1320533,184.31,-3.62,-17.50,-0.590,3.010,9.420,0.312,0.000,0.187
1320555,184.31,-3.62,-17.50,-0.580,3.020,9.390,0.500,-0.125,0.000
1320577,184.31,-3.62,-17.50,-0.600,3.040,9.390,0.500,-0.062,0.125
1320599,184.31,-3.62,-17.50,-0.600,3.040,9.410,0.187,0.125,0.000
1320624,184.31,-3.62,-17.50,-0.600,3.040,9.410,0.000,0.125,0.000
1320646,184.31,-3.62,-17.50,-0.580,3.020,9.380,-0.062,0.187,0.062
1320669,184.31,-3.62,-17.50,-0.600,3.040,9.410,-0.062,0.250,-0.062
1320694,184.31,-3.62,-17.50,-0.610,3.010,9.370,-0.187,0.250,-0.125
1320716,184.31,-3.62,-17.50,-0.600,3.020,9.380,-0.062,0.187,-0.062
1320738,184.31,-3.62,-17.50,-0.620,3.000,9.410,-0.062,0.062,0.000
1320764,184.31,-3.62,-17.50,-0.590,3.020,9.380,0.250,0.062,0.000
1320786,184.31,-3.62,-17.50,-0.600,3.030,9.390,0.125,-0.062,-0.062
1320808,184.31,-3.62,-17.50,-0.640,3.020,9.390,0.187,0.250,0.062
1320834,184.31,-3.62,-17.50,-0.620,3.040,9.400,0.062,-0.125,0.062
1320856,184.31,-3.62,-17.50,-0.580,3.010,9.390,-0.062,-0.250,0.062
1320878,184.31,-3.62,-17.50,-0.610,3.030,9.390,-0.062,-0.250,0.125
1320900,184.31,-3.62,-17.50,-0.590,3.030,9.410,0.000,-0.062,0.187
1320925,184.31,-3.62,-17.50,-0.600,3.040,9.380,0.000,0.000,0.187
1320947,184.31,-3.62,-17.50,-0.600,3.030,9.390,0.125,0.125,-0.062
1320970,184.31,-3.62,-17.50,-0.610,3.040,9.410,0.062,0.000,0.125
1320995,184.31,-3.62,-17.50,-0.640,3.040,9.390,-0.062,-0.062,0.062
1321017,184.31,-3.62,-17.50,-0.600,3.000,9.380,0.000,-0.062,-0.062
1321039,184.31,-3.62,-17.50,-0.590,3.020,9.380,0.125,-0.187,0.062
1321065,184.31,-3.62,-17.50,-0.600,3.030,9.390,0.000,0.062,-0.062
1321087,184.31,-3.62,-17.50,-0.610,3.030,9.410,0.125,0.125,-0.125
1321109,184.31,-3.62,-17.50,-0.610,3.030,9.420,0.125,0.375,-0.062
1321135,184.31,-3.62,-17.50,-0.630,3.030,9.400,-0.125,-0.250,-0.062
1321157,184.31,-3.62,-17.50,-0.610,3.020,9.380,-0.187,-0.062,0.062
1321179,184.31,-3.62,-17.50,-0.580,3.030,9.420,-0.250,-0.125,0.125
1321201,184.31,-3.62,-17.50,-0.600,3.000,9.390,0.062,0.000,0.000
1321226,184.31,-3.62,-17.50,-0.610,3.020,9.380,0.187,-0.125,0.062
1321248,184.31,-3.62,-17.50,-0.600,3.030,9.380,0.187,0.125,0.062
1321271,184.31,-3.62,-17.50,-0.600,3.040,9.430,0.312,-0.062,-0.062
1321296,184.31,-3.62,-17.50,-0.600,3.020,9.410,0.250,0.125,-0.062
1321318,184.31,-3.62,-17.50,-0.620,3.030,9.400,-0.125,0.187,-0.062
1321340,184.31,-3.62,-17.50,-0.600,3.040,9.410,-0.187,0.000,0.000
1321366,184.31,-3.62,-17.50,-0.620,3.010,9.380,-0.250,-0.062,0.125
1321388,184.31,-3.62,-17.50,-0.600,3.010,9.400,-0.187,-0.250,-0.062
1321410,184.31,-3.62,-17.50,-0.600,3.010,9.410,0.125,-0.062,0.062
1321436,184.31,-3.62,-17.50,-0.600,3.030,9.410,0.312,0.000,0.000
1321458,184.31,-3.62,-17.50,-0.590,3.030,9.390,0.312,0.062,0.000
1321480,184.31,-3.62,-17.50,-0.600,3.050,9.420,0.062,-0.062,0.000
1321502,184.31,-3.62,-17.50,-0.600,3.050,9.430,-0.250,-0.062,-0.125
1321527,184.31,-3.62,-17.50,-0.600,3.010,9.380,-0.312,0.125,-0.125
1321549,184.31,-3.62,-17.50,-0.590,3.010,9.400,-0.250,0.062,0.000
1321572,184.31,-3.62,-17.50,-0.580,3.030,9.390,0.062,0.062,0.000
1321597,184.31,-3.62,-17.50,-0.600,3.010,9.410,0.375,0.187,0.000
1321619,184.31,-3.62,-17.50,-0.600,3.040,9.380,0.250,0.000,0.000
1321641,184.31,-3.62,-17.50,-0.620,3.050,9.390,0.187,0.125,-0.062
1321667,184.31,-3.62,-17.50,-0.620,3.010,9.430,-0.187,0.125,-0.062
1321689,184.31,-3.62,-17.50,-0.610,3.030,9.380,-0.250,-0.125,0.062
1321711,184.31,-3.62,-17.50,-0.610,3.030,9.390,-0.125,0.062,-0.125
1321737,184.31,-3.62,-17.50,-0.600,3.010,9.400,0.125,-0.062,-0.125
1321759,184.31,-3.62,-17.50,-0.640,3.010,9.400,0.187,0.125,0.062
1321781,184.31,-3.62,-17.50,-0.630,3.010,9.430,0.312,0.062,0.000
1321803,184.31,-3.62,-17.50,-0.600,3.030,9.420,0.000,-0.062,0.125
1321828,184.31,-3.62,-17.50,-0.590,3.040,9.390,0.062,-0.062,0.062
1321850,184.31,-3.62,-17.50,-0.600,3.040,9.400,-0.250,-0.125,0.062
1321872,184.31,-3.62,-17.50,-0.610,3.010,9.400,-0.187,-0.125,0.000
1321898,184.31,-3.62,-17.50,-0.610,3.020,9.390,0.000,0.125,-0.125
1321920,184.31,-3.62,-17.50,-0.610,3.040,9.400,0.125,-0.062,0.000
1321942,184.31,-3.62,-17.50,-0.590,3.010,9.390,0.187,-0.125,0.062
1321968,184.31,-3.62,-17.50,-0.600,3.050,9.430,0.250,0.062,0.000
1321990,184.31,-3.62,-17.50,-0.600,3.030,9.420,0.000,-0.062,0.000
1322012,184.31,-3.62,-17.50,-0.620,3.040,9.380,-0.062,0.062,0.000
1322038,184.31,-3.62,-17.50,-0.610,3.020,9.400,-0.250,0.125,-0.062
1322060,184.31,-3.62,-17.50,-0.630,3.010,9.400,-0.187,0.000,0.062
1322082,184.31,-3.62,-17.50,-0.600,3.020,9.390,-0.062,-0.062,0.062
1322104,184.31,-3.62,-17.50,-0.600,3.010,9.410,0.250,-0.187,0.062
1322129,184.31,-3.62,-17.50,-0.600,3.030,9.400,0.250,0.187,0.000
1322151,184.31,-3.62,-17.50,-0.580,3.030,9.450,0.312,-0.187,0.000
1322173,184.31,-3.62,-17.50,-0.620,3.050,9.400,0.125,0.125,0.000
1322199,184.31,-3.62,-17.50,-0.610,3.000,9.390,-0.187,-0.062,0.000
1322221,184.31,-3.62,-17.50,-0.600,3.030,9.370,-0.187,-0.062,0.000
1322243,184.31,-3.62,-17.50,-0.590,3.020,9.380,-0.062,-0.062,0.062
1322269,184.31,-3.62,-17.50,-0.600,3.010,9.380,0.187,-0.062,0.062
1322291,184.31,-3.62,-17.50,-0.600,3.040,9.380,0.312,-0.187,0.062
1322313,184.31,-3.62,-17.50,-0.620,3.050,9.390,0.187,0.000,0.000
1322339,184.31,-3.62,-17.50,-0.620,3.030,9.390,-0.125,0.187,0.000
1322361,184.31,-3.62,-17.50,-0.590,3.020,9.390,-0.187,0.062,-0.062
1322383,184.31,-3.62,-17.50,-0.600,3.010,9.420,-0.250,-0.187,-0.062
1322405,184.31,-3.62,-17.50,-0.600,3.020,9.420,-0.062,0.062,-0.062
1322430,184.31,-3.62,-17.50,-0.600,3.010,9.430,0.062,0.125,-0.125
1322452,184.31,-3.62,-17.50,-0.610,3.040,9.390,0.250,0.000,0.000
1322474,184.31,-3.62,-17.50,-0.600,3.020,9.390,0.250,0.000,-0.062
1322500,184.31,-3.62,-17.50,-0.600,3.030,9.400,-0.187,0.062,-0.062
1322522,184.31,-3.62,-17.50,-0.600,3.020,9.390,-0.062,0.000,-0.062
1322544,184.31,-3.62,-17.50,-0.620,3.020,9.410,-0.187,-0.187,0.062
1322570,184.31,-3.62,-17.50,-0.600,3.020,9.400,0.062,-0.187,0.125
1322592,184.31,-3.62,-17.50,-0.610,3.020,9.390,0.062,-0.062,0.062
1322614,184.31,-3.62,-17.50,-0.610,3.020,9.380,0.062,-0.062,0.000
1322641,184.31,-3.62,-17.50,-0.600,3.030,9.430,0.062,0.125,0.062
1322663,184.31,-3.62,-17.50,-0.610,3.050,9.390,0.000,-0.125,0.062
1322687,184.31,-3.62,-17.50,-0.610,3.040,9.410,0.062,0.000,0.125
1322711,184.31,-3.62,-17.50,-0.600,3.040,9.390,-0.062,0.062,0.125
1322733,184.31,-3.62,-17.50,-0.600,3.040,9.390,-0.125,0.000,0.000
1322755,184.31,-3.62,-17.50,-0.590,3.010,9.430,0.062,-0.250,0.000
1322781,184.31,-3.62,-17.50,-0.610,3.020,9.400,0.000,-0.062,0.187
1322803,184.31,-3.62,-17.50,-0.620,3.020,9.390,0.062,0.000,0.062
1322825,184.31,-3.62,-17.50,-0.600,3.030,9.380,0.062,-0.062,0.125
1322851,184.31,-3.62,-17.50,-0.600,3.020,9.400,0.125,-0.062,0.062
1322873,184.31,-3.62,-17.50,-0.630,3.060,9.400,0.125,0.000,0.000
1322895,184.31,-3.62,-17.50,-0.600,3.030,9.390,-0.062,0.000,0.000
1322922,184.31,-3.62,-17.50,-0.600,3.010,9.410,-0.062,0.250,-0.062
1322944,184.31,-3.62,-17.50,-0.600,3.020,9.420,-0.062,-0.062,0.125
1322968,184.31,-3.62,-17.50,-0.610,3.050,9.400,0.000,-0.062,-0.062
1322992,184.31,-3.62,-17.50,-0.620,3.020,9.400,0.187,0.125,0.000
1323014,184.31,-3.62,-17.50,-0.630,3.020,9.400,0.125,0.000,0.187
1323036,184.31,-3.62,-17.50,-0.600,3.040,9.400,0.000,-0.062,0.187
1323058,184.31,-3.62,-17.50,-0.590,3.030,9.430,-0.250,0.187,-0.125
1323082,184.31,-3.62,-17.50,-0.620,3.040,9.380,-0.125,0.250,-0.062
1323104,184.31,-3.62,-17.50,-0.600,3.010,9.380,-0.250,-0.125,-0.125
1323126,184.31,-3.62,-17.50,-0.620,3.020,9.400,-0.187,-0.062,0.062
1323152,184.31,-3.62,-17.50,-0.590,3.020,9.410,0.062,0.000,-0.187
1323174,184.31,-3.62,-17.50,-0.600,3.040,9.410,0.062,0.250,0.000
1323196,184.31,-3.62,-17.50,-0.600,3.020,9.390,0.062,-0.062,0.000
1323222,184.31,-3.62,-17.50,-0.620,3.030,9.410,0.000,0.000,-0.125
1323244,184.31,-3.62,-17.50,-0.640,3.030,9.400,-0.125,-0.125,0.000
1323266,184.31,-3.62,-17.50,-0.600,3.040,9.400,-0.062,-0.187,0.062
1323293,184.31,-3.62,-17.50,-0.600,3.040,9.410,0.000,-0.062,-0.062
1323315,184.31,-3.62,-17.50,-0.600,3.020,9.380,0.125,0.062,0.125
1323337,184.31,-3.62,-17.50,-0.620,3.020,9.390,0.062,0.062,0.000
1323359,184.31,-3.62,-17.50,-0.620,3.020,9.390,-0.062,0.062,-0.187
1323383,184.31,-3.62,-17.50,-0.610,3.040,9.410,0.000,-0.187,0.000
1323405,184.31,-3.62,-17.50,-0.610,3.020,9.400,-0.125,-0.312,-0.062
1323427,184.31,-3.62,-17.50,-0.600,3.020,9.390,-0.062,-0.062,-0.062
1323454,184.31,-3.62,-17.50,-0.600,3.020,9.400,0.187,0.000,0.000
1323476,184.31,-3.62,-17.50,-0.600,3.050,9.380,0.125,0.000,-0.062
1323501,184.31,-3.62,-17.50,-0.610,3.010,9.400,-0.062,0.062,0.000
1323524,184.31,-3.62,-17.50,-0.620,3.030,9.380,-0.187,-0.187,0.125
1323546,184.31,-3.62,-17.50,-0.630,3.010,9.380,-0.250,0.000,-0.125
1323570,184.31,-3.62,-17.50,-0.600,3.010,9.390,-0.250,0.000,0.000
1323594,184.31,-3.62,-17.50,-0.600,3.030,9.400,-0.062,0.125,0.000
1323616,184.31,-3.62,-17.50,-0.590,3.020,9.400,0.250,0.125,-0.062
1323638,184.31,-3.62,-17.50,-0.610,3.040,9.420,0.187,0.062,-0.062
1323660,184.31,-3.62,-17.50,-0.630,3.040,9.390,0.000,-0.062,-0.125
1323684,184.31,-3.62,-17.50,-0.600,3.020,9.420,-0.125,-0.187,0.000
1323706,184.31,-3.62,-17.50,-0.610,3.010,9.420,-0.187,0.000,-0.062
1323728,184.31,-3.62,-17.50,-0.600,3.010,9.390,-0.312,-0.062,0.000
1323754,184.31,-3.62,-17.50,-0.620,3.010,9.400,0.000,0.187,-0.125
1323776,184.31,-3.62,-17.50,-0.640,3.020,9.390,0.250,0.187,-0.125
1323798,184.31,-3.62,-17.50,-0.620,3.040,9.390,0.187,0.062,0.062
1323824,184.31,-3.62,-17.50,-0.600,3.010,9.390,-0.125,0.125,0.125
1323846,184.31,-3.62,-17.50,-0.600,3.020,9.420,-0.125,-0.125,0.062
1323868,184.31,-3.62,-17.50,-0.600,3.050,9.380,-0.187,0.187,0.000
1323895,184.31,-3.62,-17.50,-0.610,3.020,9.380,-0.125,0.000,0.000
1323917,184.31,-3.62,-17.50,-0.630,3.010,9.380,-0.062,-0.250,0.125
1323939,184.31,-3.62,-17.50,-0.610,3.030,9.410,0.000,-0.125,-0.062
1323961,184.31,-3.62,-17.50,-0.610,3.030,9.380,0.125,-0.062,0.000
1323986,184.31,-3.62,-17.50,-0.610,3.020,9.410,0.125,0.062,-0.062
1324008,184.31,-3.62,-17.50,-0.600,3.020,9.390,-0.125,0.000,0.125
1324035,184.31,-3.62,-17.50,-0.630,3.040,9.400,-0.062,-0.125,-0.062
1324057,184.31,-3.62,-17.50,-0.580,3.030,9.400,-0.062,-0.062,-0.062
1324079,184.31,-3.62,-17.50,-0.600,3.020,9.380,0.000,0.187,-0.187
1324106,184.31,-3.62,-17.50,-0.620,3.030,9.410,0.187,0.125,-0.062
1324128,184.31,-3.62,-17.50,-0.610,3.020,9.410,0.187,0.062,0.000
1324152,184.31,-3.62,-17.50,-0.600,3.020,9.390,0.125,-0.062,0.062
1324176,184.31,-3.62,-17.50,-0.620,3.030,9.420,0.000,-0.062,0.000
1324198,184.31,-3.62,-17.50,-0.600,3.020,9.380,-0.062,0.000,-0.062
1324221,184.31,-3.62,-17.50,-0.600,3.040,9.410,-0.062,0.125,0.000
1324246,184.31,-3.62,-17.50,-0.600,3.030,9.410,-0.062,0.125,0.000
1324268,184.31,-3.62,-17.50,-0.600,3.020,9.370,-0.062,0.312,-0.187
1324290,184.31,-3.62,-17.50,-0.620,3.020,9.390,0.187,0.125,-0.125
1324312,184.31,-3.62,-17.50,-0.620,3.010,9.400,0.062,0.125,0.000
1324337,184.31,-3.62,-17.50,-0.610,3.010,9.380,0.125,-0.125,0.062
1324359,184.31,-3.62,-17.50,-0.600,3.030,9.400,0.062,0.000,0.000
1324383,184.31,-3.62,-17.50,-0.620,3.050,9.420,-0.125,0.250,-0.062
1324407,184.31,-3.62,-17.50,-0.600,3.030,9.410,-0.125,0.125,0.000
1324429,184.31,-3.62,-17.50,-0.600,3.030,9.410,0.125,0.062,-0.062
1324453,184.31,-3.62,-17.50,-0.600,3.040,9.380,-0.062,0.125,-0.062
1324477,184.31,-3.62,-17.50,-0.620,3.050,9.380,0.250,-0.187,-0.062
1324499,184.31,-3.62,-17.50,-0.600,3.010,9.410,0.187,0.187,-0.125
1324521,184.31,-3.62,-17.50,-0.600,3.050,9.400,-0.062,0.000,0.062
1324547,184.31,-3.62,-17.50,-0.600,3.030,9.430,0.000,-0.062,0.062
1324569,184.31,-3.62,-17.50,-0.600,3.030,9.390,-0.062,-0.062,0.000
1324591,184.31,-3.62,-17.50,-0.620,3.010,9.400,-0.062,0.062,-0.187
1324613,184.31,-3.62,-17.50,-0.630,3.030,9.410,0.125,-0.125,0.062
1324638,184.31,-3.62,-17.50,-0.610,3.020,9.410,0.062,0.000,-0.125
1324660,184.31,-3.62,-17.50,-0.600,3.040,9.400,0.187,0.000,0.000
1324685,184.31,-3.62,-17.50,-0.610,3.020,9.400,0.062,0.250,-0.125
1324708,184.31,-3.62,-17.50,-0.600,3.080,9.410,0.000,-0.125,-0.062
1324730,184.31,-3.62,-17.50,-0.600,3.030,9.390,-0.062,0.187,-0.062
1324754,184.31,-3.62,-17.50,-0.600,3.020,9.390,-0.125,-0.062,0.062
1324778,184.31,-3.62,-17.50,-0.600,3.030,9.410,-0.125,-0.125,0.000
1324800,184.31,-3.62,-17.50,-0.620,3.030,9.380,0.000,0.062,0.000
1324822,184.31,-3.62,-17.50,-0.610,3.020,9.400,0.062,0.062,0.062
1324848,184.31,-3.62,-17.50,-0.600,3.030,9.410,0.187,-0.062,0.062
1324870,184.31,-3.62,-17.50,-0.630,3.020,9.380,0.250,-0.125,0.062
1324892,184.31,-3.62,-17.50,-0.610,3.040,9.410,0.125,-0.125,0.000
1324914,184.31,-3.62,-17.50,-0.600,3.040,9.400,-0.125,0.125,0.062
1324939,184.31,-3.62,-17.50,-0.600,3.010,9.440,-0.125,0.062,-0.125
1324961,184.31,-3.62,-17.50,-0.600,3.020,9.380,-0.125,-0.062,-0.125
1324986,184.31,-3.62,-17.50,-0.620,3.010,9.390,0.062,-0.062,-0.125
1325009,184.31,-3.62,-17.50,-0.610,3.010,9.400,0.125,-0.062,0.062
1325031,184.31,-3.62,-17.50,-0.610,3.030,9.390,0.125,-0.062,0.062
1325054,184.31,-3.62,-17.50,-0.600,3.040,9.400,0.062,0.125,0.000
1325079,184.31,-3.62,-17.50,-0.600,3.030,9.400,0.000,0.125,-0.062
1325101,184.31,-3.62,-17.50,-0.630,3.030,9.400,-0.062,0.125,-0.062
1325123,184.31,-3.62,-17.50,-0.610,3.020,9.380,-0.187,0.000,-0.062
1325149,184.31,-3.62,-17.50,-0.610,3.020,9.420,-0.125,0.062,0.000
1325171,184.31,-3.62,-17.50,-0.610,3.040,9.410,0.062,-0.062,-0.062
1325193,184.31,-3.62,-17.50,-0.580,3.020,9.400,0.000,0.000,-0.062
1325215,184.31,-3.62,-17.50,-0.590,3.040,9.390,0.125,-0.125,0.125
1325240,184.31,-3.62,-17.50,-0.600,3.030,9.400,0.000,0.000,0.000
1325262,184.31,-3.62,-17.50,-0.600,3.030,9.390,0.000,0.062,-0.125
1325287,184.31,-3.62,-17.50,-0.610,3.010,9.390,-0.125,-0.062,-0.125
1325310,184.31,-3.62,-17.50,-0.620,3.020,9.400,-0.187,-0.125,-0.062
1325332,184.31,-3.62,-17.50,-0.600,3.010,9.410,0.000,-0.125,0.000
1325355,184.31,-3.62,-17.50,-0.600,3.010,9.390,0.125,-0.125,0.000
1325380,184.31,-3.62,-17.50,-0.600,3.010,9.390,0.000,0.125,0.000
1325402,184.31,-3.62,-17.50,-0.610,3.030,9.370,0.125,-0.125,0.000
1325424,184.31,-3.62,-17.50,-0.610,3.040,9.390,0.125,-0.125,0.062
1325450,184.31,-3.62,-17.50,-0.600,3.030,9.410,-0.125,-0.062,0.000
1325472,184.31,-3.62,-17.50,-0.620,3.010,9.370,-0.062,0.062,-0.062
1325494,184.31,-3.62,-17.50,-0.620,3.020,9.380,0.000,-0.062,0.062
1325516,184.31,-3.62,-17.50,-0.600,3.020,9.430,0.000,-0.125,0.125
1325541,184.31,-3.62,-17.50,-0.620,3.030,9.390,0.000,0.000,0.000
1325563,184.31,-3.62,-17.50,-0.630,3.000,9.420,0.000,0.000,-0.125
1325588,184.31,-3.62,-17.50,-0.600,3.040,9.380,0.062,-0.062,0.000
1325611,184.31,-3.62,-17.50,-0.630,3.040,9.390,0.062,-0.125,0.062
1325633,184.31,-3.62,-17.50,-0.600,3.010,9.400,-0.062,-0.125,0.062
1325656,184.31,-3.62,-17.50,-0.590,3.010,9.400,0.062,-0.062,0.000
1325681,184.31,-3.62,-17.50,-0.620,3.010,9.390,0.062,0.125,-0.062
1325703,184.31,-3.62,-17.50,-0.620,3.040,9.390,-0.062,-0.125,0.000
1325725,184.31,-3.62,-17.50,-0.610,3.030,9.390,-0.250,0.062,0.062
1325751,184.31,-3.62,-17.50,-0.600,3.040,9.430,0.000,0.000,-0.125
1325773,184.31,-3.62,-17.50,-0.600,3.000,9.390,0.000,-0.125,0.062
1325795,184.31,-3.62,-17.50,-0.590,3.050,9.410,-0.062,0.250,-0.125
1325817,184.31,-3.62,-17.50,-0.600,3.020,9.390,0.062,-0.125,0.000
1325842,184.31,-3.62,-17.50,-0.610,3.030,9.390,0.062,0.125,0.000
1325864,184.31,-3.62,-17.50,-0.610,3.020,9.380,-0.125,0.125,-0.187
1325887,184.31,-3.62,-17.50,-0.620,3.020,9.380,-0.187,0.000,0.000
1325912,184.31,-3.62,-17.50,-0.600,3.000,9.400,-0.125,0.062,0.000
1325934,184.31,-3.62,-17.50,-0.600,3.010,9.400,0.000,0.000,0.000
1325956,184.31,-3.62,-17.50,-0.600,3.020,9.400,-0.062,-0.062,0.000
1325982,184.31,-3.62,-17.50,-0.600,3.040,9.380,0.062,0.187,0.000
1326004,184.31,-3.62,-17.50,-0.610,3.040,9.380,0.000,0.000,0.062
1326026,184.31,-3.62,-17.50,-0.600,3.040,9.410,0.000,-0.062,0.062
1326052,184.31,-3.62,-17.50,-0.610,3.010,9.410,-0.062,-0.125,0.000
1326074,184.31,-3.62,-17.50,-0.600,3.010,9.380,0.000,0.125,0.062
1326096,184.31,-3.62,-17.50,-0.610,3.020,9.410,-0.125,0.125,-0.062
1326118,184.31,-3.62,-17.50,-0.610,3.030,9.390,0.062,-0.125,0.000
1326143,184.31,-3.62,-17.50,-0.610,3.030,9.400,0.000,0.000,0.062
1326165,184.31,-3.62,-17.50,-0.620,3.020,9.420,0.187,-0.125,-0.062
1326189,184.31,-3.62,-17.50,-0.600,3.030,9.400,0.062,0.000,-0.062
1326213,184.31,-3.62,-17.50,-0.610,3.000,9.400,-0.062,-0.187,0.000
1326235,184.31,-3.62,-17.50,-0.600,3.030,9.380,-0.062,0.062,-0.062
1326257,184.31,-3.62,-17.50,-0.590,3.020,9.420,-0.125,0.000,0.000
1326283,184.31,-3.62,-17.50,-0.610,3.040,9.380,0.062,0.187,-0.062
1326305,184.31,-3.62,-17.50,-0.600,3.010,9.400,-0.062,-0.062,0.062
1326327,184.31,-3.62,-17.50,-0.610,3.010,9.390,0.062,0.000,-0.062
1326353,184.31,-3.62,-17.50,-0.610,3.020,9.410,0.187,-0.250,-0.062
1326375,184.31,-3.62,-17.50,-0.610,3.030,9.390,0.125,0.000,-0.062
1326397,184.31,-3.62,-17.50,-0.610,3.020,9.410,0.000,-0.250,-0.062
1326419,184.31,-3.62,-17.50,-0.610,3.050,9.400,0.000,0.187,-0.062
1326444,184.31,-3.62,-17.50,-0.600,3.050,9.380,0.000,0.125,-0.062
1326466,184.31,-3.62,-17.50,-0.600,3.030,9.420,-0.062,-0.062,-0.062
1326490,184.31,-3.62,-17.50,-0.630,3.020,9.390,-0.187,0.000,-0.062
1326514,184.31,-3.62,-17.50,-0.600,3.010,9.380,-0.125,0.000,0.062
1326536,184.31,-3.62,-17.50,-0.590,3.020,9.400,0.187,-0.062,0.062
1326558,184.31,-3.62,-17.50,-0.600,3.030,9.410,0.250,0.187,0.062
1326584,184.31,-3.62,-17.50,-0.620,3.030,9.380,0.125,0.125,-0.187
1326606,184.31,-3.62,-17.50,-0.600,3.040,9.410,-0.062,0.000,0.062
1326628,184.31,-3.62,-17.50,-0.610,3.050,9.400,-0.250,-0.062,0.000
1326654,184.31,-3.62,-17.50,-0.570,2.990,9.400,-0.187,0.125,0.062
1326676,184.31,-3.62,-17.50,-0.620,3.020,9.380,-0.125,-0.062,0.125
1326698,184.31,-3.62,-17.50,-0.620,3.020,9.400,-0.062,0.062,-0.062
1326720,184.31,-3.62,-17.50,-0.580,3.010,9.360,0.000,0.125,0.000
1326745,184.31,-3.62,-17.50,-0.600,3.040,9.410,0.062,0.187,0.000
1326767,184.31,-3.62,-17.50,-0.640,3.030,9.380,-0.062,0.125,-0.062
1326790,184.31,-3.62,-17.50,-0.610,3.010,9.430,-0.125,-0.062,0.000
1326815,184.31,-3.62,-17.50,-0.610,3.040,9.380,-0.125,-0.062,-0.125
1326837,184.31,-3.62,-17.50,-0.590,3.050,9.390,0.062,-0.125,0.000
1326859,184.31,-3.62,-17.50,-0.600,3.030,9.410,0.000,0.000,0.125
1326885,184.31,-3.62,-17.50,-0.600,3.010,9.380,-0.125,0.000,-0.125
1326907,184.31,-3.62,-17.50,-0.600,3.030,9.380,-0.125,0.250,-0.062
1326929,184.31,-3.62,-17.50,-0.620,3.020,9.400,-0.250,0.187,0.000
1326955,184.31,-3.62,-17.50,-0.600,3.010,9.430,-0.125,0.000,-0.062
1326977,184.31,-3.62,-17.50,-0.590,3.020,9.400,-0.062,-0.062,0.125
1326999,184.31,-3.62,-17.50,-0.600,3.020,9.420,-0.125,0.000,-0.062
1327021,184.31,-3.62,-17.50,-0.590,3.010,9.400,-0.062,0.187,0.062
1327046,184.31,-3.62,-17.50,-0.610,3.040,9.390,0.187,0.125,0.000
1327068,184.31,-3.62,-17.50,-0.600,3.020,9.400,0.125,-0.062,-0.062
1327091,184.31,-3.62,-17.50,-0.600,3.010,9.390,-0.062,-0.125,0.000
1327116,184.31,-3.62,-17.50,-0.620,3.010,9.410,-0.062,0.125,0.000
1327138,184.31,-3.62,-17.50,-0.610,3.030,9.370,-0.125,0.062,-0.062
1327160,184.31,-3.62,-17.50,-0.600,3.010,9.400,0.000,0.062,-0.062
1327186,184.31,-3.62,-17.50,-0.610,3.000,9.400,0.187,-0.125,-0.062
1327208,184.31,-3.62,-17.50,-0.600,3.010,9.450,0.125,0.062,0.000
1327230,184.31,-3.62,-17.50,-0.610,3.010,9.400,0.062,0.062,0.000
1327256,184.31,-3.62,-17.50,-0.620,3.030,9.420,-0.125,-0.062,-0.062
1327278,184.31,-3.62,-17.50,-0.610,3.010,9.400,-0.062,0.062,0.000
1327300,184.31,-3.62,-17.50,-0.620,3.030,9.400,-0.250,-0.250,0.000
1327322,184.31,-3.62,-17.50,-0.610,3.020,9.380,0.062,-0.125,0.125
1327347,184.31,-3.62,-17.50,-0.590,3.010,9.440,0.187,0.187,0.000
1327369,184.31,-3.62,-17.50,-0.620,3.030,9.410,0.250,0.125,-0.062
1327392,184.31,-3.62,-17.50,-0.610,3.020,9.400,0.187,-0.125,0.125
1327417,184.31,-3.62,-17.50,-0.610,3.050,9.410,0.000,0.000,0.000
1327439,184.31,-3.62,-17.50,-0.600,3.020,9.410,-0.187,0.000,0.062
1327461,184.31,-3.62,-17.50,-0.600,3.010,9.400,-0.125,-0.062,0.000
1327487,184.31,-3.62,-17.50,-0.610,3.010,9.390,0.000,-0.250,0.000
1327509,184.31,-3.62,-17.50,-0.600,3.020,9.380,0.125,-0.062,0.062
1327531,184.31,-3.62,-17.50,-0.600,3.030,9.400,0.312,0.125,0.062
1327557,184.31,-3.62,-17.50,-0.610,3.030,9.390,0.187,0.125,-0.062
1327579,184.31,-3.62,-17.50,-0.620,3.020,9.390,-0.187,0.125,0.000
1327601,184.31,-3.62,-17.50,-0.610,3.010,9.390,-0.250,0.062,0.062
1327623,184.31,-3.62,-17.50,-0.600,3.030,9.390,-0.250,0.000,0.000
1327648,184.31,-3.62,-17.50,-0.600,3.010,9.390,0.000,0.000,0.000
1327670,184.31,-3.62,-17.50,-0.610,3.010,9.380,0.062,-0.062,0.000
1327692,184.31,-3.62,-17.50,-0.620,3.030,9.400,0.125,0.125,-0.062
1327718,184.31,-3.62,-17.50,-0.590,3.000,9.390,0.062,0.125,-0.062
1327740,184.31,-3.62,-17.50,-0.600,3.030,9.380,0.000,-0.062,0.000
1327762,184.31,-3.62,-17.50,-0.600,3.020,9.430,-0.125,-0.250,0.125
1327788,184.31,-3.62,-17.50,-0.620,3.020,9.400,-0.250,0.062,0.062
1327810,184.31,-3.62,-17.50,-0.600,3.000,9.400,-0.125,0.125,-0.062
1327832,184.31,-3.62,-17.50,-0.620,3.020,9.400,-0.062,0.000,0.062
1327858,184.31,-3.62,-17.50,-0.610,3.020,9.410,0.000,0.062,0.000
1327880,184.31,-3.62,-17.50,-0.590,3.000,9.380,-0.125,0.062,-0.062
1327902,184.31,-3.62,-17.50,-0.610,3.010,9.400,0.000,-0.125,-0.062
1327924,184.31,-3.62,-17.50,-0.610,3.020,9.390,-0.062,-0.187,-0.062
1327949,184.31,-3.62,-17.50,-0.600,3.020,9.410,-0.125,0.000,0.062
1327971,184.31,-3.62,-17.50,-0.590,3.010,9.380,0.000,-0.250,0.125
1327993,184.31,-3.62,-17.50,-0.590,3.020,9.400,-0.062,0.062,0.062
1328019,184.31,-3.62,-17.50,-0.590,3.040,9.400,0.000,0.000,0.062
1328041,184.31,-3.62,-17.50,-0.610,3.030,9.390,0.062,-0.125,0.000
1328063,184.31,-3.62,-17.50,-0.600,3.030,9.420,-0.125,0.125,-0.062
1328089,184.31,-3.62,-17.50,-0.610,3.010,9.420,-0.062,-0.062,0.000
1328111,184.31,-3.62,-17.50,-0.610,3.020,9.400,-0.125,0.187,0.000
1328133,184.31,-3.62,-17.50,-0.620,2.990,9.390,-0.062,0.062,0.062
1328160,184.31,-3.62,-17.50,-0.600,3.020,9.390,0.062,0.187,0.000
1328182,184.31,-3.62,-17.50,-0.600,3.010,9.390,-0.062,0.125,-0.062
1328206,184.31,-3.62,-17.50,-0.610,3.020,9.410,-0.062,0.062,0.000
1328230,184.31,-3.62,-17.50,-0.610,3.020,9.410,-0.187,0.125,-0.062
1328252,184.31,-3.62,-17.50,-0.620,3.020,9.390,-0.187,0.062,-0.125
1328274,184.31,-3.62,-17.50,-0.610,3.010,9.410,-0.062,0.062,0.000
1328300,184.31,-3.62,-17.50,-0.610,3.020,9.400,-0.062,0.000,-0.062
1328322,184.31,-3.62,-17.50,-0.600,3.040,9.400,0.062,0.125,0.062
1328344,184.31,-3.62,-17.50,-0.590,3.030,9.400,0.125,0.250,-0.062
1328371,184.31,-3.62,-17.50,-0.610,3.020,9.420,0.000,0.062,0.000
1328393,184.31,-3.62,-17.50,-0.610,3.020,9.380,-0.187,0.062,-0.062
1328418,184.31,-3.62,-17.50,-0.600,2.990,9.420,-0.125,-0.062,0.000
1328441,184.31,-3.62,-17.50,-0.600,3.010,9.400,0.000,0.062,0.125
1328463,184.31,-3.62,-17.50,-0.600,3.020,9.380,0.000,0.062,-0.125
1328487,184.31,-3.62,-17.50,-0.590,3.030,9.380,0.062,-0.062,-0.062
1328511,184.31,-3.62,-17.50,-0.630,3.050,9.410,0.062,0.000,0.000
1328533,184.31,-3.62,-17.50,-0.600,3.020,9.390,0.062,0.062,-0.062
1328555,184.31,-3.62,-17.50,-0.600,3.050,9.400,0.000,0.125,-0.062
1328577,184.31,-3.62,-17.50,-0.600,3.030,9.400,-0.187,0.000,0.062
1328601,184.31,-3.62,-17.50,-0.610,3.020,9.420,-0.125,-0.125,0.062
1328623,184.31,-3.62,-17.50,-0.600,3.020,9.380,-0.062,0.125,0.000
1328645,184.31,-3.62,-17.50,-0.600,3.040,9.390,0.062,0.062,-0.062
1328671,184.31,-3.62,-17.50,-0.600,3.030,9.420,0.187,0.062,0.062
1328693,184.31,-3.62,-17.50,-0.610,3.050,9.410,0.125,0.000,-0.062
1328715,184.31,-3.62,-17.50,-0.620,3.010,9.400,0.000,0.000,0.062
1328741,184.31,-3.62,-17.50,-0.600,3.030,9.390,-0.250,-0.187,0.062
1328763,184.31,-3.62,-17.50,-0.610,3.010,9.420,-0.187,0.062,-0.062
1328785,184.31,-3.62,-17.50,-0.610,3.020,9.420,-0.250,-0.062,-0.062
1328812,184.31,-3.62,-17.50,-0.590,3.010,9.410,0.000,0.062,-0.125
1328834,184.31,-3.62,-17.50,-0.600,3.060,9.380,0.250,-0.062,0.000
1328856,184.31,-3.62,-17.50,-0.600,3.020,9.400,0.187,0.000,0.062
1328878,184.31,-3.62,-17.50,-0.630,3.050,9.440,0.000,-0.312,0.062
1328902,184.31,-3.62,-17.50,-0.600,3.010,9.380,0.062,-0.062,-0.062
1328924,184.31,-3.62,-17.50,-0.600,3.050,9.380,-0.125,-0.062,0.062
1328946,184.31,-3.62,-17.50,-0.600,3.010,9.400,-0.250,0.000,0.000
1328972,184.31,-3.62,-17.50,-0.580,3.010,9.390,-0.125,0.000,-0.062
1328994,184.31,-3.62,-17.50,-0.600,3.020,9.400,0.062,0.187,-0.062
1329016,184.31,-3.62,-17.50,-0.620,3.020,9.410,0.062,0.187,-0.062
1329043,184.31,-3.62,-17.50,-0.620,3.040,9.400,-0.187,0.000,-0.062
1329065,184.31,-3.62,-17.50,-0.600,3.050,9.420,-0.312,-0.125,0.000
1329089,184.31,-3.62,-17.50,-0.600,3.020,9.380,0.000,-0.312,0.187
1329113,184.31,-3.62,-17.50,-0.590,3.030,9.430,0.125,-0.187,-0.062
1329135,184.31,-3.62,-17.50,-0.580,3.040,9.390,0.125,-0.062,-0.062
1329157,184.31,-3.62,-17.50,-0.600,3.030,9.390,0.375,0.062,-0.125
1329179,184.31,-3.62,-17.50,-0.610,3.030,9.390,0.312,0.125,-0.062
1329203,184.31,-3.62,-17.50,-0.600,3.040,9.410,0.062,0.062,-0.125
1329225,184.31,-3.62,-17.50,-0.600,3.020,9.400,0.000,0.000,-0.125
1329247,184.31,-3.62,-17.50,-0.610,3.030,9.380,-0.062,-0.125,0.000
1329274,184.31,-3.62,-17.50,-0.630,3.020,9.390,-0.125,0.000,-0.062
1329296,184.31,-3.62,-17.50,-0.620,3.020,9.420,0.000,-0.062,0.125
1329320,184.31,-3.62,-17.50,-0.590,3.020,9.400,0.312,-0.187,0.062
1329344,184.31,-3.62,-17.50,-0.600,3.030,9.410,0.312,0.062,-0.062
1329366,184.31,-3.62,-17.50,-0.620,3.030,9.420,0.187,0.187,-0.062
1329389,184.31,-3.62,-17.50,-0.600,3.050,9.390,0.125,0.000,0.000
1329414,184.31,-3.62,-17.50,-0.610,3.030,9.420,-0.062,-0.250,0.000
1329436,184.31,-3.62,-17.50,-0.580,3.040,9.390,0.062,0.000,-0.187
1329458,184.31,-3.62,-17.50,-0.600,3.040,9.380,0.062,0.062,-0.125
1329480,184.31,-3.62,-17.50,-0.600,3.000,9.370,0.375,0.062,-0.125
1329504,184.31,-3.62,-17.50,-0.630,3.020,9.380,0.562,0.187,-0.125
1329526,184.31,-3.62,-17.50,-0.610,3.030,9.390,0.437,-0.187,0.000
1329548,184.31,-3.62,-17.50,-0.620,3.060,9.430,0.375,0.000,-0.125
1329574,184.31,-3.62,-17.50,-0.590,3.050,9.370,0.250,0.312,-0.125
1329596,184.31,-3.62,-17.50,-0.580,3.040,9.400,0.500,0.312,-0.187
1329618,184.31,-3.62,-17.50,-0.650,3.040,9.410,0.437,0.125,-0.187
1329645,184.31,-3.62,-17.50,-0.620,3.030,9.370,0.375,0.125,0.000
1329667,184.31,-3.62,-17.50,-0.610,3.040,9.390,0.375,-0.062,0.125
1329690,184.31,-3.62,-17.50,-0.580,3.070,9.380,0.187,0.125,0.125
1329715,184.31,-3.62,-17.50,-0.590,3.040,9.380,0.250,0.062,-0.062
1329737,184.31,-3.62,-17.50,-0.600,3.030,9.360,0.437,0.250,-0.062
1329759,184.31,-3.62,-17.50,-0.660,3.040,9.380,0.562,0.250,-0.312
1329781,184.31,-3.62,-17.50,-0.620,3.040,9.410,0.625,0.062,-0.062
1329805,184.37,-3.62,-17.50,-0.610,3.040,9.390,0.687,-0.062,-0.125
1329827,184.37,-3.62,-17.50,-0.620,3.050,9.380,0.625,-0.187,0.000
1329849,184.37,-3.62,-17.50,-0.600,3.070,9.380,0.625,0.000,-0.125
1329876,184.37,-3.62,-17.50,-0.620,3.080,9.390,0.375,0.000,-0.062
1329898,184.37,-3.62,-17.50,-0.610,3.080,9.380,0.437,-0.250,0.062
1329922,184.37,-3.62,-17.50,-0.630,3.080,9.390,0.375,-0.250,0.062
1329946,184.37,-3.62,-17.50,-0.620,3.060,9.390,0.312,-0.312,0.125
1329968,184.37,-3.62,-17.50,-0.600,3.070,9.380,0.312,-0.187,0.125
1329991,184.37,-3.62,-17.50,-0.590,3.100,9.350,0.250,-0.187,0.062
1330016,184.37,-3.62,-17.50,-0.590,3.090,9.390,0.062,0.000,0.125
1330038,184.37,-3.62,-17.50,-0.610,3.090,9.380,0.000,0.187,0.187
1330060,184.37,-3.62,-17.50,-0.600,3.090,9.400,-0.187,0.000,0.312
1330082,184.37,-3.62,-17.50,-0.640,3.080,9.400,-0.937,-0.125,0.062
1330107,184.31,-3.62,-17.50,-0.610,3.050,9.390,-0.812,0.000,0.062
1330129,184.31,-3.62,-17.50,-0.610,3.080,9.350,-0.687,0.125,0.000
1330154,184.31,-3.62,-17.50,-0.620,3.060,9.380,-0.437,0.187,-0.125
1330177,184.31,-3.62,-17.50,-0.630,3.070,9.390,-0.312,-0.062,0.125
1330199,184.31,-3.62,-17.50,-0.610,3.070,9.360,-0.250,0.000,0.000
1330223,184.31,-3.62,-17.50,-0.580,3.070,9.390,-0.312,0.062,0.000
1330247,184.31,-3.62,-17.50,-0.560,3.090,9.380,-0.562,0.250,-0.062
1330269,184.31,-3.62,-17.44,-0.570,3.070,9.410,-0.625,0.125,-0.250
1330291,184.31,-3.62,-17.44,-0.610,3.050,9.350,-0.562,0.562,-0.437
1330317,184.31,-3.62,-17.44,-0.640,3.040,9.360,-0.187,0.750,-0.500
1330339,184.31,-3.62,-17.44,-0.610,3.070,9.390,-0.125,0.437,-0.375
1330361,184.31,-3.62,-17.44,-0.620,3.090,9.360,-0.125,0.125,-0.125
1330383,184.31,-3.62,-17.44,-0.620,3.110,9.390,-0.125,0.187,-0.187
1330408,184.31,-3.62,-17.44,-0.600,3.110,9.430,-0.312,0.125,-0.125
1330430,184.31,-3.62,-17.44,-0.640,3.080,9.400,-0.500,0.062,-0.125
1330455,184.31,-3.62,-17.44,-0.610,3.090,9.370,-0.750,0.000,-0.062
1330478,184.31,-3.62,-17.44,-0.630,3.070,9.360,-0.625,-0.250,0.250
1330500,184.31,-3.62,-17.44,-0.630,3.060,9.360,-0.437,-0.062,0.000
1330522,184.31,-3.62,-17.44,-0.610,3.080,9.380,-0.187,0.250,0.000
1330548,184.31,-3.62,-17.44,-0.610,3.090,9.400,-0.375,-0.125,0.125
1330570,184.31,-3.62,-17.44,-0.620,3.090,9.410,-0.625,0.062,0.000
1330592,184.31,-3.62,-17.37,-0.640,3.040,9.350,-0.625,0.000,-0.062
1330618,184.31,-3.62,-17.37,-0.620,3.060,9.340,-0.875,0.187,-0.187
1330640,184.31,-3.62,-17.37,-0.610,3.060,9.430,-0.625,0.250,-0.187
1330662,184.31,-3.62,-17.37,-0.580,3.090,9.390,-0.312,-0.125,-0.062
1330684,184.31,-3.62,-17.37,-0.570,3.100,9.380,0.000,0.562,-0.187
1330709,184.31,-3.62,-17.37,-0.690,3.130,9.450,0.187,0.062,-0.125
1330731,184.31,-3.62,-17.37,-0.650,3.070,9.400,-0.125,-0.062,0.187
1330755,184.31,-3.62,-17.37,-0.660,3.060,9.370,-0.500,-0.812,0.125
1330779,184.31,-3.62,-17.37,-0.600,3.100,9.370,-0.437,-0.625,0.312
1330801,184.31,-3.62,-17.37,-0.540,3.060,9.440,-0.187,-0.562,0.312
1330825,184.31,-3.62,-17.37,-0.540,3.050,9.310,0.375,0.062,-0.125
1330849,184.31,-3.62,-17.37,-0.640,3.100,9.410,0.375,0.875,-0.125
1330871,184.31,-3.62,-17.37,-0.670,3.150,9.480,-0.312,0.562,-0.250
1330893,184.31,-3.62,-17.37,-0.670,3.120,9.360,-0.500,-0.187,0.000
1330919,184.31,-3.62,-17.37,-0.620,3.110,9.420,-0.437,-0.062,0.000
1330941,184.31,-3.62,-17.37,-0.630,3.060,9.350,-0.500,-0.437,0.062
1330963,184.31,-3.62,-17.37,-0.610,3.050,9.330,-0.125,-0.625,0.125
1330985,184.31,-3.62,-17.37,-0.570,3.050,9.320,0.437,0.000,0.187
1331010,184.31,-3.62,-17.37,-0.600,3.080,9.350,0.187,0.375,-0.125
1331032,184.31,-3.62,-17.37,-0.630,3.120,9.390,0.187,0.625,-0.187
1331056,184.31,-3.62,-17.37,-0.660,3.130,9.420,-0.562,0.250,-0.062
1331080,184.31,-3.62,-17.31,-0.620,3.080,9.380,-1.000,-0.125,0.000
1331102,184.31,-3.62,-17.31,-0.630,3.040,9.350,-1.125,-0.125,-0.187
1331125,184.31,-3.62,-17.31,-0.640,3.050,9.380,-0.437,-0.437,0.000
1331150,184.31,-3.62,-17.31,-0.570,3.070,9.310,-0.062,-0.062,-0.187
1331172,184.31,-3.62,-17.31,-0.580,3.090,9.360,0.437,0.375,-0.187
1331194,184.31,-3.62,-17.31,-0.590,3.120,9.400,0.312,0.312,-0.125
1331220,184.31,-3.62,-17.31,-0.650,3.120,9.430,-0.062,0.187,-0.125
1331242,184.31,-3.62,-17.31,-0.630,3.110,9.400,-0.500,0.000,0.000
1331264,184.31,-3.62,-17.31,-0.620,3.070,9.380,-0.937,-0.187,0.062
1331286,184.31,-3.62,-17.25,-0.610,3.070,9.380,-1.125,-0.250,0.062
1331311,184.31,-3.62,-17.25,-0.600,3.060,9.340,-0.500,-0.187,-0.062
1331333,184.31,-3.62,-17.25,-0.600,3.070,9.370,0.062,0.062,0.000
1331358,184.31,-3.62,-17.25,-0.620,3.090,9.390,0.250,0.250,-0.062
1331381,184.31,-3.62,-17.25,-0.620,3.120,9.390,0.125,0.187,-0.187
1331403,184.31,-3.62,-17.25,-0.620,3.100,9.420,-0.062,0.125,0.000
1331426,184.31,-3.62,-17.25,-0.620,3.090,9.410,-0.625,0.000,-0.062
1331451,184.31,-3.62,-17.25,-0.600,3.060,9.380,-0.750,0.000,-0.062
1331473,184.31,-3.62,-17.19,-0.620,3.070,9.350,-0.687,0.062,0.000
1331495,184.31,-3.62,-17.19,-0.620,3.080,9.360,-0.187,-0.062,0.000
1331521,184.31,-3.62,-17.19,-0.610,3.110,9.370,0.000,0.000,0.187
1331543,184.31,-3.62,-17.19,-0.600,3.090,9.340,0.125,0.187,0.062
1331565,184.31,-3.62,-17.19,-0.600,3.080,9.400,-0.125,0.250,0.000
1331587,184.31,-3.62,-17.19,-0.620,3.080,9.390,-0.625,0.250,-0.125
1331612,184.31,-3.62,-17.19,-0.620,3.080,9.370,-0.875,0.250,-0.187
1331634,184.31,-3.62,-17.19,-0.610,3.060,9.390,-0.875,0.125,-0.187
1331658,184.31,-3.62,-17.19,-0.640,3.060,9.380,-0.250,0.312,-0.125
1331682,184.31,-3.62,-17.19,-0.630,3.070,9.400,-0.062,0.375,0.000
1331704,184.31,-3.62,-17.19,-0.620,3.080,9.360,0.000,0.312,-0.187
1331727,184.31,-3.62,-17.19,-0.630,3.090,9.410,-0.375,0.125,-0.062
1331752,184.31,-3.62,-17.19,-0.640,3.100,9.390,-0.750,0.125,0.000
1331774,184.31,-3.62,-17.12,-0.610,3.060,9.400,-0.875,0.000,0.000
1331796,184.31,-3.62,-17.12,-0.630,3.080,9.350,-0.937,0.000,0.000
1331822,184.31,-3.62,-17.12,-0.600,3.030,9.370,-0.750,0.125,0.000
1331844,184.31,-3.62,-17.12,-0.610,3.060,9.340,-0.500,0.125,-0.062
1331866,184.31,-3.62,-17.12,-0.610,3.040,9.380,-0.375,0.312,-0.125
1331888,184.31,-3.62,-17.12,-0.630,3.050,9.380,-0.625,0.562,-0.250
1331913,184.31,-3.62,-17.06,-0.640,3.060,9.390,-0.500,0.312,-0.187
1331935,184.31,-3.62,-17.06,-0.660,3.070,9.400,-0.687,0.062,-0.187
1331959,184.31,-3.62,-17.06,-0.640,3.060,9.380,-0.562,-0.125,-0.062
1331983,184.31,-3.62,-17.06,-0.610,3.050,9.380,-0.375,-0.125,-0.062
1332005,184.31,-3.62,-17.06,-0.610,3.060,9.380,-0.062,0.312,-0.187
1332027,184.31,-3.62,-17.06,-0.630,3.070,9.350,-0.187,0.437,-0.187
1332053,184.31,-3.62,-17.06,-0.640,3.080,9.390,-0.687,0.625,-0.375
1332075,184.31,-3.62,-17.06,-0.650,3.050,9.420,-0.812,0.625,-0.187
1332097,184.31,-3.62,-17.06,-0.630,3.070,9.390,-1.000,0.437,-0.250
1332123,184.31,-3.62,-17.00,-0.670,3.030,9.430,-0.937,0.187,-0.250
1332145,184.31,-3.62,-17.00,-0.710,3.020,9.450,-0.562,-0.312,0.000
1332167,184.31,-3.62,-17.00,-0.660,3.020,9.370,0.250,-0.750,0.187
1332189,184.31,-3.62,-17.00,-0.610,3.040,9.300,0.687,-0.062,0.000
1332214,184.31,-3.62,-17.00,-0.590,3.090,9.370,0.500,0.312,-0.187
1332236,184.31,-3.62,-17.00,-0.650,3.120,9.390,0.187,0.437,-0.125
1332258,184.31,-3.62,-17.06,-0.700,3.110,9.460,-0.500,0.562,-0.062
1332284,184.31,-3.62,-17.00,-0.680,3.060,9.430,-1.062,0.062,0.000
1332306,184.31,-3.62,-17.00,-0.640,3.010,9.370,-1.437,-0.250,0.125
1332328,184.31,-3.62,-17.00,-0.630,3.000,9.330,-1.062,-0.187,0.000
1332354,184.31,-3.62,-17.00,-0.650,3.010,9.360,0.000,0.187,-0.125
1332376,184.31,-3.62,-17.00,-0.670,3.050,9.400,0.625,0.187,-0.250
1332398,184.31,-3.62,-17.06,-0.670,3.060,9.420,0.625,0.250,-0.125
1332424,184.31,-3.62,-17.06,-0.650,3.080,9.410,0.562,0.187,-0.125
1332446,184.31,-3.62,-17.06,-0.630,3.110,9.390,-0.062,0.250,-0.125
1332468,184.31,-3.62,-17.06,-0.660,3.060,9.390,-0.562,0.062,-0.250
1332490,184.31,-3.69,-17.06,-0.670,3.030,9.380,-0.937,0.125,-0.312
1332515,184.31,-3.69,-17.06,-0.680,3.010,9.340,-0.562,0.000,-0.062
1332537,184.31,-3.69,-17.06,-0.660,3.000,9.350,-0.250,0.062,-0.062
1332559,184.31,-3.69,-17.06,-0.650,3.110,9.420,0.187,-0.062,0.250
1332585,184.31,-3.69,-17.12,-0.660,3.030,9.410,0.187,-0.250,0.187
1332607,184.31,-3.69,-17.12,-0.610,3.050,9.380,0.562,-0.250,0.187
1332629,184.31,-3.69,-17.12,-0.620,3.080,9.350,0.312,-0.187,0.187
1332655,184.31,-3.69,-17.12,-0.640,3.060,9.390,-0.750,0.062,-0.250
1332677,184.31,-3.69,-17.12,-0.670,3.040,9.410,-0.750,0.062,-0.250
1332699,184.31,-3.69,-17.12,-0.680,3.050,9.380,-0.312,0.125,-0.125
1332725,184.31,-3.69,-17.12,-0.650,3.060,9.390,-0.187,0.250,-0.187
1332747,184.31,-3.69,-17.12,-0.670,3.050,9.390,-0.062,-0.125,0.062
1332769,184.31,-3.69,-17.12,-0.660,3.030,9.390,0.187,0.062,-0.062
1332791,184.31,-3.69,-17.12,-0.680,3.080,9.380,0.187,-0.062,0.062
1332816,184.31,-3.69,-17.19,-0.640,3.060,9.380,-0.125,-0.375,0.187
1332838,184.31,-3.69,-17.19,-0.640,3.070,9.380,-0.250,-0.250,0.062
1332860,184.31,-3.69,-17.19,-0.650,3.090,9.370,-0.375,-0.187,0.000
1332886,184.31,-3.69,-17.19,-0.660,3.050,9.400,-0.250,0.000,-0.062
1332908,184.31,-3.69,-17.19,-0.670,3.040,9.380,-0.187,-0.187,0.062
1332930,184.31,-3.69,-17.19,-0.650,3.040,9.380,0.000,-0.312,0.250
1332956,184.31,-3.69,-17.19,-0.640,3.070,9.400,-0.250,-0.187,0.125
1332978,184.31,-3.69,-17.25,-0.670,3.040,9.370,-0.250,-0.250,0.000
1333000,184.31,-3.69,-17.25,-0.640,3.060,9.370,-0.125,-0.062,0.000
1333026,184.31,-3.69,-17.25,-0.610,3.080,9.370,-0.187,0.187,0.000
1333048,184.31,-3.69,-17.25,-0.630,3.060,9.390,-0.312,0.187,-0.062
1333070,184.31,-3.69,-17.25,-0.700,3.060,9.400,-0.437,0.250,0.000
1333092,184.31,-3.69,-17.25,-0.680,3.050,9.440,-0.250,-0.250,0.125
1333117,184.31,-3.69,-17.25,-0.640,3.050,9.380,-0.187,-0.437,0.125
1333139,184.31,-3.69,-17.25,-0.630,3.060,9.390,-0.312,-0.187,0.000
1333161,184.31,-3.69,-17.25,-0.630,3.080,9.390,-0.125,0.000,0.062
1333187,184.31,-3.69,-17.25,-0.660,3.060,9.410,-0.187,0.062,0.062
1333209,184.31,-3.69,-17.31,-0.660,3.060,9.400,-0.250,0.000,-0.062
1333231,184.31,-3.69,-17.31,-0.660,3.060,9.390,-0.375,-0.125,0.000
1333257,184.31,-3.69,-17.31,-0.650,3.080,9.390,-0.562,-0.312,0.062
1333279,184.31,-3.69,-17.31,-0.600,3.040,9.380,-0.250,-0.250,0.062
1333301,184.31,-3.69,-17.31,-0.640,3.040,9.370,-0.375,0.125,-0.125
1333327,184.31,-3.69,-17.31,-0.650,3.050,9.410,-0.062,0.062,-0.125
1333349,184.31,-3.69,-17.31,-0.660,3.070,9.370,-0.125,0.062,-0.187
1333371,184.31,-3.69,-17.31,-0.660,3.070,9.390,-0.187,0.000,0.000
1333393,184.31,-3.69,-17.31,-0.650,3.060,9.390,0.000,0.000,-0.062
1333418,184.31,-3.69,-17.31,-0.640,3.030,9.400,-0.062,0.000,-0.125
1333440,184.31,-3.69,-17.31,-0.640,3.060,9.410,0.062,0.187,0.000
1333462,184.31,-3.69,-17.37,-0.650,3.070,9.390,0.062,0.000,0.062
1333488,184.31,-3.69,-17.37,-0.660,3.040,9.380,0.062,0.000,0.000
1333510,184.31,-3.69,-17.37,-0.640,3.040,9.350,0.125,-0.125,0.125
1333532,184.31,-3.69,-17.37,-0.650,3.080,9.390,0.062,0.125,0.000
1333558,184.31,-3.69,-17.37,-0.600,3.040,9.380,0.062,-0.125,0.000
1333580,184.31,-3.69,-17.37,-0.660,3.060,9.380,-0.062,0.000,-0.062
1333602,184.31,-3.69,-17.37,-0.650,3.050,9.360,0.000,0.062,-0.062
1333629,184.31,-3.69,-17.37,-0.630,3.070,9.390,-0.062,-0.125,0.062
1333651,184.31,-3.69,-17.37,-0.660,3.050,9.380,-0.062,-0.125,0.000
1333675,184.31,-3.69,-17.37,-0.650,3.060,9.390,0.062,0.062,0.000
1333699,184.31,-3.69,-17.37,-0.640,3.040,9.360,-0.062,-0.062,0.062
1333721,184.31,-3.69,-17.37,-0.660,3.060,9.390,-0.062,0.000,-0.062
1333743,184.31,-3.69,-17.37,-0.640,3.050,9.370,0.062,-0.062,0.062
1333769,184.31,-3.69,-17.37,-0.650,3.060,9.380,0.062,0.000,-0.250
1333791,184.31,-3.69,-17.37,-0.650,3.060,9.400,0.062,0.125,-0.125
1333813,184.31,-3.69,-17.37,-0.670,3.060,9.380,0.125,0.187,0.000
1333839,184.31,-3.69,-17.37,-0.650,3.090,9.380,0.000,-0.062,0.000
1333861,184.31,-3.69,-17.37,-0.650,3.060,9.370,0.000,0.062,-0.062
1333883,184.31,-3.69,-17.37,-0.660,3.040,9.390,-0.062,-0.187,0.125
1333910,184.31,-3.69,-17.37,-0.650,3.050,9.370,-0.062,-0.125,-0.062
1333932,184.31,-3.69,-17.37,-0.630,3.050,9.390,-0.125,0.062,-0.062
1333956,184.31,-3.69,-17.37,-0.640,3.040,9.380,0.125,0.062,-0.125
1333980,184.31,-3.69,-17.37,-0.650,3.060,9.400,0.125,0.187,-0.125
1334002,184.31,-3.69,-17.37,-0.640,3.110,9.410,0.062,0.062,-0.125
1334024,184.31,-3.69,-17.37,-0.660,3.060,9.340,-0.062,0.250,-0.125
1334046,184.31,-3.69,-17.37,-0.660,3.090,9.460,-0.312,-0.062,-0.062
1334070,184.31,-3.69,-17.37,-0.660,3.050,9.420,-0.312,-0.187,0.062
1334092,184.31,-3.69,-17.37,-0.630,3.050,9.400,-0.062,-0.187,-0.062
1334114,184.31,-3.69,-17.37,-0.620,3.040,9.350,0.187,-0.187,-0.062
1334140,184.31,-3.69,-17.37,-0.620,3.040,9.360,0.125,0.000,0.000
1334162,184.31,-3.69,-17.37,-0.640,3.060,9.390,0.062,0.187,0.000
1334184,184.31,-3.69,-17.37,-0.660,3.090,9.440,0.000,0.500,0.000
1334210,184.31,-3.69,-17.37,-0.660,3.060,9.410,-0.250,0.062,0.000
1334232,184.31,-3.69,-17.37,-0.660,3.040,9.390,-0.312,-0.125,0.000
1334254,184.31,-3.69,-17.37,-0.650,3.040,9.370,-0.375,-0.312,0.000
1334281,184.31,-3.69,-17.37,-0.620,3.040,9.370,0.125,-0.437,0.062
1334303,184.31,-3.69,-17.37,-0.610,3.040,9.360,0.437,0.000,0.062
1334325,184.31,-3.69,-17.37,-0.640,3.070,9.420,0.500,0.062,-0.062
1334347,184.31,-3.69,-17.37,-0.680,3.060,9.390,0.125,0.187,-0.125
1334371,184.31,-3.69,-17.37,-0.650,3.060,9.390,-0.375,0.062,0.000
1334393,184.31,-3.69,-17.37,-0.700,3.070,9.400,-0.500,-0.187,0.000
1334415,184.31,-3.69,-17.31,-0.660,3.050,9.350,-0.375,-0.437,0.000
1334442,184.31,-3.69,-17.31,-0.600,3.020,9.340,0.062,-0.187,0.062
1334464,184.31,-3.69,-17.31,-0.620,3.070,9.390,0.250,0.187,-0.125
1334489,184.31,-3.69,-17.31,-0.660,3.090,9.400,0.375,0.125,0.000
1334512,184.31,-3.69,-17.31,-0.680,3.060,9.390,0.312,0.250,-0.125
1334534,184.31,-3.69,-17.31,-0.640,3.070,9.400,-0.187,-0.062,0.062
1334558,184.31,-3.69,-17.31,-0.650,3.080,9.390,-0.375,-0.250,-0.125
1334582,184.31,-3.69,-17.31,-0.640,3.060,9.370,-0.375,0.062,-0.062
1334604,184.31,-3.69,-17.31,-0.640,3.040,9.380,-0.250,0.125,-0.062
1334626,184.31,-3.69,-17.31,-0.670,3.030,9.390,0.187,0.000,0.062
1334648,184.31,-3.69,-17.31,-0.650,3.030,9.390,0.250,0.000,-0.062
1334672,184.31,-3.69,-17.31,-0.640,3.070,9.380,0.187,0.000,-0.062
1334694,184.31,-3.69,-17.31,-0.640,3.060,9.400,0.125,0.125,-0.125
1334716,184.31,-3.69,-17.31,-0.650,3.080,9.380,-0.250,0.000,-0.062
1334742,184.31,-3.69,-17.31,-0.650,3.030,9.380,-0.375,-0.062,0.000
1334764,184.31,-3.69,-17.31,-0.660,3.040,9.360,-0.125,0.062,0.000
1334786,184.31,-3.69,-17.31,-0.640,3.050,9.380,0.062,0.000,0.000
1334812,184.31,-3.69,-17.31,-0.630,3.040,9.390,0.187,0.000,0.000
1334834,184.31,-3.69,-17.31,-0.670,3.020,9.390,0.187,0.000,0.187
1334856,184.31,-3.69,-17.31,-0.640,3.060,9.320,0.125,-0.125,0.000
1334883,184.31,-3.69,-17.31,-0.640,3.090,9.430,-0.250,0.375,-0.250
1334905,184.31,-3.69,-17.31,-0.670,3.090,9.450,-0.437,0.000,0.000
1334927,184.31,-3.69,-17.31,-0.710,3.040,9.420,-0.125,-0.312,0.000
1334949,184.31,-3.69,-17.31,-0.650,3.020,9.370,0.375,-0.375,0.062
1334973,184.31,-3.69,-17.31,-0.610,3.020,9.320,0.125,-0.187,-0.125
1334995,184.31,-3.69,-17.31,-0.620,3.060,9.340,-0.125,0.125,-0.062
1335017,184.31,-3.69,-17.31,-0.650,3.070,9.400,0.062,0.250,-0.187
1335043,184.31,-3.69,-17.31,-0.710,3.040,9.450,-0.312,-0.250,0.000
1335065,184.31,-3.69,-17.31,-0.650,3.060,9.380,-0.250,-0.187,-0.062
1335087,184.31,-3.69,-17.31,-0.650,3.040,9.370,-0.125,-0.500,0.062
1335113,184.31,-3.69,-17.31,-0.600,3.030,9.330,-0.125,-0.250,0.000
1335135,184.31,-3.69,-17.31,-0.630,3.030,9.370,0.187,-0.125,0.062
1335157,184.31,-3.69,-17.31,-0.650,3.070,9.380,0.312,0.187,-0.062
1335184,184.31,-3.69,-17.31,-0.670,3.080,9.420,0.312,-0.125,0.062
1335206,184.31,-3.69,-17.31,-0.630,3.090,9.360,0.000,-0.187,0.000
1335228,184.31,-3.69,-17.31,-0.630,3.070,9.380,-0.250,-0.062,-0.062
1335250,184.31,-3.69,-17.31,-0.650,3.060,9.390,-0.312,-0.125,-0.062
1335275,184.31,-3.69,-17.31,-0.640,3.030,9.360,-0.250,-0.125,-0.062
1335297,184.31,-3.69,-17.31,-0.640,3.060,9.360,0.000,-0.187,0.062
1335323,184.31,-3.69,-17.31,-0.620,3.100,9.410,0.375,0.062,0.000
1335345,184.31,-3.69,-17.31,-0.640,3.080,9.380,0.187,-0.125,0.125
1335367,184.31,-3.69,-17.31,-0.660,3.050,9.360,0.125,-0.125,-0.125
1335392,184.31,-3.69,-17.31,-0.660,3.050,9.350,-0.250,0.062,-0.062
1335415,184.31,-3.69,-17.31,-0.630,3.080,9.390,-0.437,0.312,-0.062
1335437,184.31,-3.69,-17.31,-0.640,3.100,9.440,-0.500,0.437,-0.125
1335460,184.31,-3.69,-17.31,-0.700,3.040,9.470,-0.250,-0.312,0.000
1335485,184.31,-3.69,-17.31,-0.650,3.050,9.350,0.500,-0.750,0.312
1335507,184.31,-3.69,-17.31,-0.590,3.030,9.270,0.312,0.062,0.062
1335529,184.31,-3.69,-17.31,-0.590,3.030,9.260,-0.375,0.500,-0.187
1335551,184.31,-3.69,-17.31,-0.650,3.050,9.370,-0.625,0.437,-0.312
1335575,184.31,-3.69,-17.31,-0.690,3.080,9.490,-0.500,0.125,-0.187
1335597,184.31,-3.69,-17.31,-0.670,3.050,9.390,-0.375,-0.062,0.000
1335619,184.31,-3.69,-17.31,-0.650,3.060,9.380,-0.187,-0.437,0.000
1335646,184.31,-3.69,-17.31,-0.630,3.030,9.380,0.125,-0.250,0.000
1335668,184.31,-3.69,-17.31,-0.650,3.040,9.380,0.437,0.000,0.062
1335692,184.31,-3.69,-17.31,-0.640,3.070,9.330,0.187,0.437,-0.187
1335716,184.31,-3.69,-17.31,-0.650,3.080,9.430,-0.250,0.250,0.000
1335738,184.31,-3.69,-17.31,-0.670,3.090,9.430,-0.625,0.250,-0.062
1335761,184.31,-3.69,-17.31,-0.650,3.060,9.400,-0.500,-0.250,0.000
1335786,184.31,-3.69,-17.31,-0.640,3.040,9.420,-0.375,-0.125,0.062
1335808,184.31,-3.69,-17.31,-0.660,3.020,9.370,-0.125,-0.125,0.187
1335830,184.31,-3.69,-17.31,-0.620,3.030,9.350,0.250,0.062,0.000
1335852,184.31,-3.69,-17.31,-0.620,3.070,9.360,0.250,0.187,-0.125
1335876,184.31,-3.69,-17.31,-0.630,3.100,9.410,0.125,0.062,-0.125
1335898,184.31,-3.69,-17.31,-0.670,3.070,9.450,-0.312,0.125,0.000
1335920,184.31,-3.69,-17.31,-0.660,3.080,9.400,-0.375,0.000,0.062
1335947,184.31,-3.69,-17.31,-0.670,3.030,9.390,-0.625,-0.312,0.125
1335969,184.31,-3.69,-17.31,-0.620,3.010,9.370,-0.437,-0.187,0.062
1335993,184.31,-3.69,-17.31,-0.640,3.040,9.410,0.125,0.312,0.000
1336017,184.31,-3.69,-17.31,-0.630,3.050,9.380,0.500,0.000,-0.062
1336039,184.31,-3.69,-17.31,-0.670,3.080,9.410,0.500,0.187,-0.125
1336062,184.31,-3.69,-17.31,-0.660,3.090,9.400,0.062,-0.062,-0.062
1336087,184.31,-3.69,-17.31,-0.660,3.050,9.390,-0.312,0.000,-0.062
1336109,184.31,-3.69,-17.31,-0.640,3.060,9.380,-0.625,-0.375,0.062
1336131,184.31,-3.69,-17.31,-0.630,3.050,9.400,-0.375,-0.187,0.062
1336153,184.31,-3.69,-17.31,-0.640,3.040,9.370,-0.187,0.062,-0.062
1336178,184.31,-3.69,-17.31,-0.670,3.030,9.380,0.125,0.125,-0.125
1336200,184.31,-3.69,-17.31,-0.680,3.080,9.410,0.250,-0.062,0.000
1336225,184.31,-3.69,-17.31,-0.680,3.080,9.410,0.062,0.000,-0.062
1336248,184.31,-3.69,-17.31,-0.630,3.060,9.370,-0.187,-0.062,-0.125
1336270,184.31,-3.69,-17.31,-0.660,3.060,9.360,-0.437,0.000,0.000
1336294,184.31,-3.69,-17.31,-0.640,3.040,9.400,-0.437,0.062,0.062
1336318,184.31,-3.69,-17.31,-0.630,3.060,9.340,-0.250,-0.062,0.000
1336340,184.31,-3.69,-17.31,-0.680,3.050,9.410,0.062,0.062,-0.125
1336362,184.31,-3.69,-17.31,-0.670,3.070,9.390,0.250,0.125,0.000
1336388,184.31,-3.69,-17.31,-0.640,3.050,9.390,0.125,-0.125,0.125
1336410,184.31,-3.69,-17.31,-0.630,3.090,9.350,-0.125,-0.125,-0.062
1336432,184.31,-3.69,-17.31,-0.650,3.060,9.380,-0.250,0.062,-0.125
1336454,184.31,-3.69,-17.31,-0.640,3.040,9.420,-0.437,-0.062,0.000
1336479,184.31,-3.69,-17.31,-0.660,3.040,9.390,-0.250,0.125,0.000
1336501,184.31,-3.69,-17.31,-0.620,3.060,9.390,-0.125,-0.125,-0.187
1336526,184.31,-3.69,-17.31,-0.640,3.040,9.420,0.250,-0.250,0.062
1336549,184.31,-3.69,-17.31,-0.670,3.070,9.410,0.187,-0.250,0.000
1336571,184.31,-3.69,-17.31,-0.660,3.080,9.390,0.062,-0.062,0.000
1336595,184.31,-3.69,-17.31,-0.640,3.070,9.380,-0.375,0.000,-0.062
1336619,184.31,-3.69,-17.31,-0.650,3.050,9.390,-0.437,0.062,-0.125
1336641,184.31,-3.69,-17.31,-0.670,3.050,9.370,-0.375,0.062,-0.125
1336663,184.31,-3.69,-17.31,-0.680,3.040,9.390,-0.187,-0.062,0.062
1336689,184.31,-3.69,-17.31,-0.630,3.060,9.410,0.187,0.062,0.000
1336711,184.31,-3.69,-17.31,-0.640,3.100,9.380,0.187,0.000,0.062
1336733,184.31,-3.69,-17.31,-0.650,3.080,9.380,0.062,-0.062,0.000
1336755,184.31,-3.69,-17.31,-0.650,3.050,9.370,-0.187,0.062,-0.062
1336780,184.31,-3.69,-17.31,-0.650,3.050,9.390,-0.437,-0.125,-0.062
1336802,184.31,-3.69,-17.31,-0.650,3.080,9.390,-0.375,0.125,0.000
1336827,184.31,-3.69,-17.31,-0.660,3.040,9.380,-0.062,-0.062,0.125
1336850,184.31,-3.69,-17.31,-0.670,3.080,9.370,0.312,0.000,0.062
1336872,184.31,-3.69,-17.31,-0.650,3.050,9.400,0.437,0.125,-0.062
1336896,184.31,-3.69,-17.31,-0.640,3.060,9.380,0.312,-0.187,0.000
1336920,184.31,-3.69,-17.31,-0.650,3.080,9.390,0.187,0.000,0.125
1336942,184.31,-3.69,-17.31,-0.680,3.060,9.380,-0.187,0.062,0.125
1336964,184.31,-3.69,-17.31,-0.660,3.060,9.370,-0.375,-0.062,0.125
1336990,184.31,-3.69,-17.31,-0.660,3.060,9.400,-0.437,0.250,0.000
1337012,184.31,-3.69,-17.31,-0.640,3.070,9.420,-0.062,0.125,0.062
1337034,184.31,-3.69,-17.31,-0.670,3.050,9.400,0.437,0.062,0.000
1337056,184.31,-3.69,-17.31,-0.650,3.050,9.360,0.437,0.125,0.062
1337081,184.31,-3.69,-17.31,-0.630,3.070,9.390,0.000,0.062,0.062
1337103,184.31,-3.69,-17.31,-0.670,3.090,9.380,-0.062,-0.062,-0.062
1337127,184.31,-3.69,-17.31,-0.640,3.070,9.410,-0.125,0.000,0.000
1337151,184.31,-3.69,-17.31,-0.650,3.050,9.390,-0.125,-0.062,0.062
1337173,184.31,-3.69,-17.31,-0.680,3.030,9.390,0.000,-0.125,0.000
1337196,184.31,-3.69,-17.31,-0.660,3.040,9.380,0.187,-0.062,0.125
1337221,184.31,-3.69,-17.31,-0.630,3.070,9.380,0.312,0.125,0.062
1337243,184.31,-3.69,-17.31,-0.650,3.070,9.380,0.312,0.187,0.062
1337265,184.31,-3.69,-17.31,-0.650,3.090,9.410,0.125,0.187,0.000
1337291,184.31,-3.69,-17.31,-0.670,3.070,9.400,-0.125,0.125,0.062
1337313,184.31,-3.69,-17.31,-0.640,3.070,9.380,-0.375,0.000,0.000
1337335,184.31,-3.69,-17.31,-0.630,3.070,9.370,-0.250,-0.187,-0.062
1337357,184.31,-3.69,-17.31,-0.660,3.070,9.400,-0.062,-0.062,-0.062
1337382,184.31,-3.69,-17.31,-0.660,3.050,9.390,0.312,0.187,0.000
1337404,184.31,-3.69,-17.31,-0.670,3.040,9.390,0.250,0.062,0.000
1337428,184.31,-3.69,-17.31,-0.660,3.070,9.410,-0.062,0.000,0.000
1337452,184.31,-3.69,-17.31,-0.640,3.090,9.390,-0.250,-0.062,0.062
1337474,184.31,-3.69,-17.31,-0.660,3.060,9.390,-0.187,0.000,-0.062
1337496,184.31,-3.69,-17.31,-0.630,3.060,9.400,-0.125,0.000,0.000
1337522,184.31,-3.69,-17.31,-0.650,3.050,9.370,0.000,-0.062,0.000
1337544,184.31,-3.69,-17.31,-0.630,3.050,9.390,0.062,-0.187,0.000
1337566,184.31,-3.69,-17.31,-0.640,3.050,9.390,0.062,0.000,0.125
1337592,184.31,-3.69,-17.31,-0.670,3.050,9.420,-0.062,0.125,0.000
1337614,184.31,-3.69,-17.31,-0.640,3.060,9.370,-0.125,-0.062,0.062
1337636,184.31,-3.69,-17.31,-0.650,3.060,9.410,-0.062,0.000,-0.062
1337658,184.31,-3.69,-17.31,-0.630,3.070,9.390,-0.062,-0.062,0.000
1337683,184.31,-3.69,-17.31,-0.660,3.030,9.370,0.000,-0.250,0.000
1337705,184.31,-3.69,-17.31,-0.650,3.040,9.390,0.000,0.062,0.062
1337729,184.31,-3.69,-17.31,-0.670,3.070,9.360,-0.062,0.125,0.062
1337753,184.31,-3.69,-17.31,-0.630,3.070,9.410,0.000,-0.062,0.062
1337775,184.31,-3.69,-17.31,-0.630,3.050,9.380,-0.187,-0.125,0.000
1337797,184.31,-3.69,-17.31,-0.650,3.050,9.420,-0.062,0.062,-0.187
1337823,184.31,-3.69,-17.31,-0.660,3.050,9.400,-0.062,-0.125,0.062
1337845,184.31,-3.69,-17.31,-0.640,3.050,9.370,0.125,0.000,-0.125
1337867,184.31,-3.69,-17.31,-0.650,3.060,9.380,0.062,0.062,-0.062
1337893,184.31,-3.69,-17.31,-0.670,3.080,9.430,-0.062,0.062,-0.062
1337915,184.31,-3.69,-17.31,-0.650,3.060,9.380,-0.187,0.000,0.000
1337937,184.31,-3.69,-17.31,-0.670,3.070,9.400,-0.125,0.062,0.062
1337959,184.31,-3.69,-17.31,-0.660,3.040,9.420,-0.312,0.000,0.062
1337984,184.31,-3.69,-17.31,-0.640,3.050,9.380,-0.187,-0.250,0.000
1338006,184.31,-3.69,-17.31,-0.640,3.060,9.360,0.000,-0.062,0.000
1338028,184.31,-3.69,-17.31,-0.620,3.070,9.360,0.062,0.062,0.000
1338054,184.31,-3.69,-17.31,-0.640,3.080,9.400,0.125,-0.062,-0.062
1338076,184.31,-3.69,-17.31,-0.660,3.040,9.380,-0.125,0.062,0.062
1338098,184.31,-3.69,-17.31,-0.670,3.040,9.380,-0.125,-0.187,0.062
1338124,184.31,-3.69,-17.31,-0.620,3.060,9.370,-0.125,0.062,-0.125
1338146,184.31,-3.69,-17.31,-0.670,3.070,9.400,-0.062,0.125,-0.062
1338168,184.31,-3.69,-17.31,-0.650,3.060,9.410,-0.062,0.062,0.000
1338195,184.31,-3.69,-17.31,-0.660,3.070,9.420,0.062,-0.125,0.000
1338217,184.31,-3.69,-17.31,-0.660,3.040,9.370,0.062,0.000,0.000
1338241,184.31,-3.69,-17.31,-0.650,3.070,9.410,-0.062,-0.062,0.000
1338265,184.31,-3.69,-17.31,-0.650,3.060,9.360,-0.125,-0.187,0.062
1338287,184.31,-3.69,-17.31,-0.640,3.060,9.380,-0.125,-0.312,0.062
1338309,184.31,-3.69,-17.31,-0.630,3.070,9.380,0.062,-0.125,0.062
1338335,184.31,-3.69,-17.31,-0.670,3.060,9.380,0.500,0.062,0.000
1338357,184.31,-3.69,-17.31,-0.700,3.080,9.410,0.312,0.500,-0.187
1338379,184.31,-3.69,-17.31,-0.660,3.080,9.400,0.437,0.000,0.000
1338405,184.31,-3.69,-17.31,-0.660,3.040,9.370,0.312,-0.125,0.187
